pos,corr_resp,trials_2.thisRepN,trials_2.thisTrialN,trials_2.thisN,trials_2.thisIndex,trials.thisRepN,trials.thisTrialN,trials.thisN,trials.thisIndex,thisRow.t,notes,trial.started,fixation.started,line1.started,line2.started,line3.started,line4.started,fixation.stopped,probe.started,key_resp.started,trial.stopped,key_resp.keys,key_resp.corr,key_resp.rt,key_resp.duration,participant,session,date,expName,psychopyVersion,frameRate,expStart,
-50,x,0,0,0,2,0,0,0,0,0.01819719997001812,,0.011736100015696138,0.01819719997001812,1.0118564000003971,1.0118564000003971,1.0118564000003971,1.0118564000003971,1.0252401999896392,2.007897400006186,2.007897400006186,5.127594499965198,v,0,3.0050109999720007,None,293371,001,2024-10-16_15h55.48.869,4.0 Motor Sequence Learning,2024.1.5,None,2024-10-16 15h55.58.497276 +0530,
150,v,0,0,0,2,0,1,1,1,5.1360066999914125,,5.130133299971931,5.1360066999914125,6.13768300000811,6.13768300000811,6.13768300000811,6.13768300000811,6.13768300000811,7.136551600007806,7.136551600007806,8.954577500000596,z,0,1.8159790000063367,None,293371,001,2024-10-16_15h55.48.869,4.0 Motor Sequence Learning,2024.1.5,None,2024-10-16 15h55.58.497276 +0530,
50,c,0,0,0,2,0,2,2,2,8.971642499964219,,8.956414000014775,8.971642499964219,9.967979600012768,9.967979600012768,9.967979600012768,9.967979600012768,9.967979600012768,10.966975999996066,10.966975999996066,14.116378100006841,c,1,3.132480799977202,None,293371,001,2024-10-16_15h55.48.869,4.0 Motor Sequence Learning,2024.1.5,None,2024-10-16 15h55.58.497276 +0530,
-150,z,0,0,0,2,0,3,3,3,14.133947199967224,,14.118216399976518,14.133947199967224,15.130312799999956,15.130312799999956,15.130312799999956,15.130312799999956,15.130312799999956,16.12957990000723,16.12957990000723,20.960868099995423,x,0,4.814998599991668,None,293371,001,2024-10-16_15h55.48.869,4.0 Motor Sequence Learning,2024.1.5,None,2024-10-16 15h55.58.497276 +0530,
-50,x,0,0,0,2,1,0,4,0,20.978157399978954,,20.962634499999695,20.978157399978954,21.960825699963607,21.960825699963607,21.960825699963607,21.960825699963607,21.974759600008838,22.973806499969214,22.973806499969214,24.524734399979934,v,0,1.548891199985519,None,293371,001,2024-10-16_15h55.48.869,4.0 Motor Sequence Learning,2024.1.5,None,2024-10-16 15h55.58.497276 +0530,
150,v,0,0,0,2,1,1,5,1,24.542311800003517,,24.52655309997499,24.542311800003517,25.541434000013396,25.541434000013396,25.541434000013396,25.541434000013396,25.55532400001539,26.537771800009068,26.537771800009068,28.204803599976003,z,0,1.6650415000040084,None,293371,001,2024-10-16_15h55.48.869,4.0 Motor Sequence Learning,2024.1.5,None,2024-10-16 15h55.58.497276 +0530,
50,c,0,0,0,2,1,2,6,2,28.22209200001089,,28.206376899965107,28.22209200001089,29.20499140000902,29.20499140000902,29.20499140000902,29.20499140000902,29.2187918999698,30.217821199970786,30.217821199970786,33.185043499979656,c,1,2.9649233000236563,None,293371,001,2024-10-16_15h55.48.869,4.0 Motor Sequence Learning,2024.1.5,None,2024-10-16 15h55.58.497276 +0530,
-150,z,0,0,0,2,1,3,7,3,33.20171589998063,,33.18684169999324,33.20171589998063,34.198217099998146,34.198217099998146,34.198217099998146,34.198217099998146,34.198217099998146,35.19730729999719,35.19730729999719,36.714363100007176,x,0,1.5107024000026286,None,293371,001,2024-10-16_15h55.48.869,4.0 Motor Sequence Learning,2024.1.5,None,2024-10-16 15h55.58.497276 +0530,
-50,x,0,0,0,2,2,0,8,0,36.73202399996808,,36.71622289996594,36.73202399996808,37.71462519996567,37.71462519996567,37.71462519996567,37.71462519996567,37.728512900008354,38.72791909996886,38.72791909996886,40.144429499981925,v,0,1.4023209000006318,None,293371,001,2024-10-16_15h55.48.869,4.0 Motor Sequence Learning,2024.1.5,None,2024-10-16 15h55.58.497276 +0530,
150,v,0,0,0,2,2,1,9,1,40.162534400005825,,40.14560769998934,40.162534400005825,41.14526019996265,41.14526019996265,41.14526019996265,41.14526019996265,41.159003800014034,42.15835839998908,42.15835839998908,43.44151699997019,z,0,1.2709382999455556,None,293371,001,2024-10-16_15h55.48.869,4.0 Motor Sequence Learning,2024.1.5,None,2024-10-16 15h55.58.497276 +0530,
50,c,0,0,0,2,2,2,10,2,43.4596096999594,,43.44336179998936,43.4596096999594,44.44231349998154,44.44231349998154,44.44231349998154,44.44231349998154,44.45617499999935,45.455513099965174,45.455513099965174,46.78894140000921,c,1,1.3256784999975935,None,293371,001,2024-10-16_15h55.48.869,4.0 Motor Sequence Learning,2024.1.5,None,2024-10-16 15h55.58.497276 +0530,
-150,z,0,0,0,2,2,3,11,3,46.8066651999834,,46.79094539996004,46.8066651999834,47.789589099993464,47.789589099993464,47.789589099993464,47.789589099993464,47.803545199974906,48.80266929999925,48.80266929999925,49.98566279996885,x,0,1.1768734999932349,None,293371,001,2024-10-16_15h55.48.869,4.0 Motor Sequence Learning,2024.1.5,None,2024-10-16 15h55.58.497276 +0530,
-50,x,0,0,0,2,3,0,12,0,50.004238999972586,,49.98657529999036,50.004238999972586,50.98685609997483,50.98685609997483,50.98685609997483,50.98685609997483,51.001078700006474,51.99991040001623,51.99991040001623,53.41707349999342,v,0,1.4136574000003748,None,293371,001,2024-10-16_15h55.48.869,4.0 Motor Sequence Learning,2024.1.5,None,2024-10-16 15h55.58.497276 +0530,
150,v,0,0,0,2,3,1,13,1,53.43476049997844,,53.419013599981554,53.43476049997844,54.417723999999,54.417723999999,54.417723999999,54.417723999999,54.431149999960326,55.430422800011,55.430422800011,56.680655999982264,z,0,1.2377434999798425,None,293371,001,2024-10-16_15h55.48.869,4.0 Motor Sequence Learning,2024.1.5,None,2024-10-16 15h55.58.497276 +0530,
50,c,0,0,0,2,3,2,14,2,56.698923799965996,,56.68237200001022,56.698923799965996,57.681553400005214,57.681553400005214,57.681553400005214,57.681553400005214,57.69568629999412,58.694525600003544,58.694525600003544,59.79528439999558,c,1,1.0863881999976002,None,293371,001,2024-10-16_15h55.48.869,4.0 Motor Sequence Learning,2024.1.5,None,2024-10-16 15h55.58.497276 +0530,
-150,z,0,0,0,2,3,3,15,3,59.812829500006046,,59.79717390000587,59.812829500006046,60.79557710001245,60.79557710001245,60.79557710001245,60.79557710001245,60.809469099971466,61.80868029996054,61.80868029996054,62.77560519997496,x,0,0.9551800999906845,None,293371,001,2024-10-16_15h55.48.869,4.0 Motor Sequence Learning,2024.1.5,None,2024-10-16 15h55.58.497276 +0530,
-50,x,0,0,0,2,4,0,16,0,62.79389590001665,,62.77751609997358,62.79389590001665,63.77619169995887,63.77619169995887,63.77619169995887,63.77619169995887,63.80703349999385,64.78957610001089,64.78957610001089,65.60724350000964,v,0,0.801691300002858,None,293371,001,2024-10-16_15h55.48.869,4.0 Motor Sequence Learning,2024.1.5,None,2024-10-16 15h55.58.497276 +0530,
150,v,0,0,0,2,4,1,17,1,65.62532539997483,,65.60888849996263,65.62532539997483,66.60755029995926,66.60755029995926,66.60755029995926,66.60755029995926,66.63821189996088,67.6204987000092,67.6204987000092,68.58811060001608,z,0,0.9616994999814779,None,293371,001,2024-10-16_15h55.48.869,4.0 Motor Sequence Learning,2024.1.5,None,2024-10-16 15h55.58.497276 +0530,
50,c,0,0,0,2,4,2,18,2,68.60579200001666,,68.59003229998052,68.60579200001666,69.60245539998868,69.60245539998868,69.60245539998868,69.60245539998868,69.60245539998868,70.60158959997352,70.60158959997352,71.65238079999108,c,1,1.0375348000088707,None,293371,001,2024-10-16_15h55.48.869,4.0 Motor Sequence Learning,2024.1.5,None,2024-10-16 15h55.58.497276 +0530,
-150,z,0,0,0,2,4,3,19,3,71.6698871999979,,71.65428640000755,71.6698871999979,72.66632899997057,72.66632899997057,72.66632899997057,72.66632899997057,72.66632899997057,73.66535829997156,73.66535829997156,74.7163211000152,x,0,1.0413925999891944,None,293371,001,2024-10-16_15h55.48.869,4.0 Motor Sequence Learning,2024.1.5,None,2024-10-16 15h55.58.497276 +0530,
-50,x,0,0,0,2,5,0,20,0,74.7341956999735,,74.71814589999849,74.7341956999735,75.71647079999093,75.71647079999093,75.71647079999093,75.71647079999093,75.74716999998782,76.72993289999431,76.72993289999431,78.21299520001048,c,0,1.4736414999933913,None,293371,001,2024-10-16_15h55.48.869,4.0 Motor Sequence Learning,2024.1.5,None,2024-10-16 15h55.58.497276 +0530,
150,v,0,0,0,2,5,1,21,1,78.23118369997246,,78.21464829996694,78.23118369997246,79.21359090000624,79.21359090000624,79.21359090000624,79.21359090000624,79.22774780000327,80.22697069996502,80.22697069996502,81.54426080000121,z,0,1.3083579000085592,None,293371,001,2024-10-16_15h55.48.869,4.0 Motor Sequence Learning,2024.1.5,None,2024-10-16 15h55.58.497276 +0530,
50,c,0,0,0,2,5,2,22,2,81.56156409997493,,81.54624990001321,81.56156409997493,82.54479790001642,82.54479790001642,82.54479790001642,82.54479790001642,82.55840499995975,83.55736149998847,83.55736149998847,84.8913651999901,v,0,1.3247587999794632,None,293371,001,2024-10-16_15h55.48.869,4.0 Motor Sequence Learning,2024.1.5,None,2024-10-16 15h55.58.497276 +0530,
-150,z,0,0,0,2,5,3,23,3,84.90855779999401,,84.89321389998076,84.90855779999401,85.89166500000283,85.89166500000283,85.89166500000283,85.89166500000283,85.9054067999823,86.90461209998466,86.90461209998466,87.90479760000017,x,0,0.9946718999999575,None,293371,001,2024-10-16_15h55.48.869,4.0 Motor Sequence Learning,2024.1.5,None,2024-10-16 15h55.58.497276 +0530,
-50,x,0,0,0,2,6,0,24,0,87.9230910000042,,87.90616750001209,87.9230910000042,88.90589549997821,88.90589549997821,88.90589549997821,88.90589549997821,88.91973630001303,89.9188792000059,89.9188792000059,91.01970359997358,c,0,1.089940900041256,None,293371,001,2024-10-16_15h55.48.869,4.0 Motor Sequence Learning,2024.1.5,None,2024-10-16 15h55.58.497276 +0530,
150,v,0,0,0,2,6,1,25,1,91.037481700012,,91.02164940000512,91.037481700012,92.01998440001626,92.01998440001626,92.01998440001626,92.01998440001626,92.0340114000137,93.03306190000148,93.03306190000148,94.2338657999644,z,0,1.1839736999827437,None,293371,001,2024-10-16_15h55.48.869,4.0 Motor Sequence Learning,2024.1.5,None,2024-10-16 15h55.58.497276 +0530,
50,c,0,0,0,2,6,2,26,2,94.25133020000067,,94.23587309999857,94.25133020000067,95.24771779996809,95.24771779996809,95.24771779996809,95.24771779996809,95.24771779996809,96.24684889998753,96.24684889998753,96.94734770001378,c,1,0.6886403000098653,None,293371,001,2024-10-16_15h55.48.869,4.0 Motor Sequence Learning,2024.1.5,None,2024-10-16 15h55.58.497276 +0530,
-150,z,0,0,0,2,6,3,27,3,96.9659524000017,,96.94890109996777,96.9659524000017,97.94841810001526,97.94841810001526,97.94841810001526,97.94841810001526,97.96231480001006,98.96137340000132,98.96137340000132,99.99492289999034,x,0,1.0285131999989972,None,293371,001,2024-10-16_15h55.48.869,4.0 Motor Sequence Learning,2024.1.5,None,2024-10-16 15h55.58.497276 +0530,
-50,x,0,0,0,2,7,0,28,0,100.01293019996956,,99.99659270001575,100.01293019996956,100.99562729999889,100.99562729999889,100.99562729999889,100.99562729999889,101.00993499998003,102.00897369999439,102.00897369999439,103.80904349999037,v,0,1.7890221000416204,None,293371,001,2024-10-16_15h55.48.869,4.0 Motor Sequence Learning,2024.1.5,None,2024-10-16 15h55.58.497276 +0530,
150,v,0,0,0,2,7,1,29,1,103.82690489996457,,103.81074589997297,103.82690489996457,104.80961679999018,104.80961679999018,104.80961679999018,104.80961679999018,104.8232924999902,105.82247299997834,105.82247299997834,106.95580289995996,z,0,1.1170050999498926,None,293371,001,2024-10-16_15h55.48.869,4.0 Motor Sequence Learning,2024.1.5,None,2024-10-16 15h55.58.497276 +0530,
50,c,0,0,0,2,7,2,30,2,106.97425510000903,,106.95779179997044,106.97425510000903,107.95670739997877,107.95670739997877,107.95670739997877,107.95670739997877,107.9706092000124,108.96982349996688,108.96982349996688,109.92064620001474,c,1,0.9408028000034392,None,293371,001,2024-10-16_15h55.48.869,4.0 Motor Sequence Learning,2024.1.5,None,2024-10-16 15h55.58.497276 +0530,
-150,z,0,0,0,2,7,3,31,3,109.93793289997848,,109.92272370000137,109.93793289997848,110.92121760000009,110.92121760000009,110.92121760000009,110.92121760000009,110.93486529996153,111.93396860000212,111.93396860000212,113.01868579996517,x,0,1.082750000001397,None,293371,001,2024-10-16_15h55.48.869,4.0 Motor Sequence Learning,2024.1.5,None,2024-10-16 15h55.58.497276 +0530,
-50,x,0,0,0,2,8,0,32,0,113.03541079995921,,113.02064589998918,113.03541079995921,114.03218509996077,114.03218509996077,114.03218509996077,114.03218509996077,114.03218509996077,115.03142429998843,115.03142429998843,116.53188610001234,v,0,1.4906035999883898,None,293371,001,2024-10-16_15h55.48.869,4.0 Motor Sequence Learning,2024.1.5,None,2024-10-16 15h55.58.497276 +0530,
150,v,0,0,0,2,8,1,33,1,116.54983959998935,,116.53381409996655,116.54983959998935,117.53202069998952,117.53202069998952,117.53202069998952,117.53202069998952,117.56290249997983,118.54550000000745,118.54550000000745,120.52870460000122,z,0,1.9680855000042357,None,293371,001,2024-10-16_15h55.48.869,4.0 Motor Sequence Learning,2024.1.5,None,2024-10-16 15h55.58.497276 +0530,
50,c,0,0,0,2,8,2,34,2,120.54650509997737,,120.53087159997085,120.54650509997737,121.5428592999815,121.5428592999815,121.5428592999815,121.5428592999815,121.5428592999815,122.54226979997475,122.54226979997475,123.54308779997518,c,1,0.9845471999724396,None,293371,001,2024-10-16_15h55.48.869,4.0 Motor Sequence Learning,2024.1.5,None,2024-10-16 15h55.58.497276 +0530,
-150,z,0,0,0,2,8,3,35,3,123.56059860001551,,123.54501910001272,123.56059860001551,124.55718469998101,124.55718469998101,124.55718469998101,124.55718469998101,124.55718469998101,125.55630579998251,125.55630579998251,126.77385719999438,x,0,1.2073933000210673,None,293371,001,2024-10-16_15h55.48.869,4.0 Motor Sequence Learning,2024.1.5,None,2024-10-16 15h55.58.497276 +0530,
-50,x,0,0,0,2,9,0,36,0,126.79148129996611,,126.77563119999832,126.79148129996611,127.79064089996973,127.79064089996973,127.79064089996973,127.79064089996973,127.80436349997763,128.78690449998248,128.78690449998248,131.28675909998128,v,0,2.4897437999607064,None,293371,001,2024-10-16_15h55.48.869,4.0 Motor Sequence Learning,2024.1.5,None,2024-10-16 15h55.58.497276 +0530,
150,v,0,0,0,2,9,1,37,1,131.30453959997976,,131.28912229998969,131.30453959997976,132.3008554999833,132.3008554999833,132.3008554999833,132.3008554999833,132.3008554999833,133.29985650000162,133.29985650000162,134.21741619997192,z,0,0.9147232000250369,None,293371,001,2024-10-16_15h55.48.869,4.0 Motor Sequence Learning,2024.1.5,None,2024-10-16 15h55.58.497276 +0530,
50,c,0,0,0,2,9,2,38,2,134.23506829998223,,134.21966349997092,134.23506829998223,135.2179163999972,135.2179163999972,135.2179163999972,135.2179163999972,135.23194119997788,136.23068849998526,136.23068849998526,137.04824809997808,v,0,0.8067350000492297,None,293371,001,2024-10-16_15h55.48.869,4.0 Motor Sequence Learning,2024.1.5,None,2024-10-16 15h55.58.497276 +0530,
-150,z,0,0,0,2,9,3,39,3,137.0658460999839,,137.05102790001547,137.0658460999839,138.04920889995992,138.04920889995992,138.04920889995992,138.04920889995992,138.06259330001194,139.06147329998203,139.06147329998203,140.0123199999798,x,0,0.9383147999760695,None,293371,001,2024-10-16_15h55.48.869,4.0 Motor Sequence Learning,2024.1.5,None,2024-10-16 15h55.58.497276 +0530,
-50,x,0,0,0,2,10,0,40,0,140.03057950001676,,140.01400480000302,140.03057950001676,141.01350160001311,141.01350160001311,141.01350160001311,141.01350160001311,141.02702649997082,142.02610740001546,142.02610740001546,144.0934310000157,v,0,2.0615270999842323,None,293371,001,2024-10-16_15h55.48.869,4.0 Motor Sequence Learning,2024.1.5,None,2024-10-16 15h55.58.497276 +0530,
150,v,0,0,0,2,10,1,41,1,144.11055410001427,,144.094989300007,144.11055410001427,145.10744679998606,145.10744679998606,145.10744679998606,145.10744679998606,145.10744679998606,146.10619530000258,146.10619530000258,147.1910929000005,z,0,1.0702188999857754,None,293371,001,2024-10-16_15h55.48.869,4.0 Motor Sequence Learning,2024.1.5,None,2024-10-16 15h55.58.497276 +0530,
50,c,0,0,0,2,10,2,42,2,147.20805680000922,,147.1929541999707,147.20805680000922,148.2068954000133,148.2068954000133,148.2068954000133,148.2068954000133,148.22098250000272,149.20312510000076,149.20312510000076,150.48685970000224,c,1,1.2721755999955349,None,293371,001,2024-10-16_15h55.48.869,4.0 Motor Sequence Learning,2024.1.5,None,2024-10-16 15h55.58.497276 +0530,
-150,z,0,0,0,2,10,3,43,3,150.5057582000154,,150.4880009999615,150.5057582000154,151.48787389998324,151.48787389998324,151.48787389998324,151.48787389998324,151.51827190001495,152.50071870000102,152.50071870000102,153.76806279999437,z,1,1.2549185999669135,None,293371,001,2024-10-16_15h55.48.869,4.0 Motor Sequence Learning,2024.1.5,None,2024-10-16 15h55.58.497276 +0530,
-50,x,0,0,0,2,11,0,44,0,153.7857367999968,,153.76991530001396,153.7857367999968,154.7822470999672,154.7822470999672,154.7822470999672,154.7822470999672,154.7822470999672,155.7815428999602,155.7815428999602,158.36390940001002,v,0,2.5658187000080943,None,293371,001,2024-10-16_15h55.48.869,4.0 Motor Sequence Learning,2024.1.5,None,2024-10-16 15h55.58.497276 +0530,
150,v,0,0,0,2,11,1,45,1,158.3816746000084,,158.3659072999726,158.3816746000084,159.3646951999981,159.3646951999981,159.3646951999981,159.3646951999981,159.3785817999742,160.3776915000053,160.3776915000053,161.52846499998122,z,0,1.1441614999785088,None,293371,001,2024-10-16_15h55.48.869,4.0 Motor Sequence Learning,2024.1.5,None,2024-10-16 15h55.58.497276 +0530,
50,c,0,0,0,2,11,2,46,2,161.54552039998816,,161.53053699998418,161.54552039998816,162.52856890001567,162.52856890001567,162.52856890001567,162.52856890001567,162.542346799979,163.5414528999827,163.5414528999827,165.24183909996646,c,1,1.6987005000119098,None,293371,001,2024-10-16_15h55.48.869,4.0 Motor Sequence Learning,2024.1.5,None,2024-10-16 15h55.58.497276 +0530,
-150,z,0,0,0,2,11,3,47,3,165.25990000000456,,165.24376899999334,165.25990000000456,166.24201919999905,166.24201919999905,166.24201919999905,166.24201919999905,166.27283839997835,167.25538529996993,167.25538529996993,167.9065301999799,x,0,0.6473861000267789,None,293371,001,2024-10-16_15h55.48.869,4.0 Motor Sequence Learning,2024.1.5,None,2024-10-16 15h55.58.497276 +0530,
-50,x,0,0,0,2,12,0,48,0,167.92392809997546,,167.9084025999764,167.92392809997546,168.9205955999787,168.9205955999787,168.9205955999787,168.9205955999787,168.9205955999787,169.91980889998376,169.91980889998376,171.65389979997417,v,0,1.7316073999973014,None,293371,001,2024-10-16_15h55.48.869,4.0 Motor Sequence Learning,2024.1.5,None,2024-10-16 15h55.58.497276 +0530,
150,v,0,0,0,2,12,1,49,1,171.6711587999598,,171.65578729996923,171.6711587999598,172.6675791000016,172.6675791000016,172.6675791000016,172.6675791000016,172.6675791000016,173.66672079998534,173.66672079998534,174.7008225999889,x,0,1.0213842000230215,None,293371,001,2024-10-16_15h55.48.869,4.0 Motor Sequence Learning,2024.1.5,None,2024-10-16 15h55.58.497276 +0530,
50,c,0,0,0,2,12,2,50,2,174.7183124999865,,174.7027244999772,174.7183124999865,175.7152162999846,175.7152162999846,175.7152162999846,175.7152162999846,175.7152162999846,176.7141954000108,176.7141954000108,177.99823560001096,c,1,1.2715012000408024,None,293371,001,2024-10-16_15h55.48.869,4.0 Motor Sequence Learning,2024.1.5,None,2024-10-16 15h55.58.497276 +0530,
-150,z,0,0,0,2,12,3,51,3,178.0156011999934,,178.00061210000422,178.0156011999934,179.01239849999547,179.01239849999547,179.01239849999547,179.01239849999547,179.01239849999547,180.0114928999683,180.0114928999683,181.81177939998452,x,0,1.784108699997887,None,293371,001,2024-10-16_15h55.48.869,4.0 Motor Sequence Learning,2024.1.5,None,2024-10-16 15h55.58.497276 +0530,
-50,x,0,0,0,2,13,0,52,0,181.82928030000767,,181.81391119997716,181.82928030000767,182.8256134999683,182.8256134999683,182.8256134999683,182.8256134999683,182.8256134999683,183.824786400015,183.824786400015,185.0756723000086,v,0,1.2342135000508279,None,293371,001,2024-10-16_15h55.48.869,4.0 Motor Sequence Learning,2024.1.5,None,2024-10-16 15h55.58.497276 +0530,
150,v,0,0,0,2,13,1,53,1,185.09346239996376,,185.0775813999935,185.09346239996376,186.0757350999629,186.0757350999629,186.0757350999629,186.0757350999629,186.10656270000618,187.08920609997585,187.08920609997585,187.94042479997734,z,0,0.8482360999914818,None,293371,001,2024-10-16_15h55.48.869,4.0 Motor Sequence Learning,2024.1.5,None,2024-10-16 15h55.58.497276 +0530,
50,c,0,0,0,2,13,2,54,2,187.95776309998473,,187.9426739999908,187.95776309998473,188.9543568000081,188.9543568000081,188.9543568000081,188.9543568000081,188.9543568000081,189.9533259999589,189.9533259999589,191.10334879998118,c,1,1.1331587000167929,None,293371,001,2024-10-16_15h55.48.869,4.0 Motor Sequence Learning,2024.1.5,None,2024-10-16 15h55.58.497276 +0530,
-150,z,0,0,0,2,13,3,55,3,191.12132179999026,,191.10511010000482,191.12132179999026,192.10438059997978,192.10438059997978,192.10438059997978,192.10438059997978,192.11818210000638,193.11719359998824,193.11719359998824,194.28499859996373,x,0,1.1611234999727458,None,293371,001,2024-10-16_15h55.48.869,4.0 Motor Sequence Learning,2024.1.5,None,2024-10-16 15h55.58.497276 +0530,
-50,x,0,0,0,2,14,0,56,0,194.30277790001128,,194.28698849998182,194.30277790001128,195.29913279996254,195.29913279996254,195.29913279996254,195.29913279996254,195.29913279996254,196.29809639998712,196.29809639998712,197.93156160000945,v,0,1.6270739999599755,None,293371,001,2024-10-16_15h55.48.869,4.0 Motor Sequence Learning,2024.1.5,None,2024-10-16 15h55.58.497276 +0530,
150,v,0,0,0,2,14,1,57,1,197.94946460000938,,197.9334213999682,197.94946460000938,198.93239009997342,198.93239009997342,198.93239009997342,198.93239009997342,198.9459399000043,199.9453031999874,199.9453031999874,201.22885849996237,z,0,1.2674683000077493,None,293371,001,2024-10-16_15h55.48.869,4.0 Motor Sequence Learning,2024.1.5,None,2024-10-16 15h55.58.497276 +0530,
50,c,0,0,0,2,14,2,58,2,201.24690889997873,,201.2308611999615,201.24690889997873,202.24338190001436,202.24338190001436,202.24338190001436,202.24338190001436,202.24338190001436,203.2425892999745,203.2425892999745,204.47608950000722,c,1,1.2191047000233084,None,293371,001,2024-10-16_15h55.48.869,4.0 Motor Sequence Learning,2024.1.5,None,2024-10-16 15h55.58.497276 +0530,
-150,z,0,0,0,2,14,3,59,3,204.49415210000006,,204.47800259996438,204.49415210000006,205.47680090001086,205.47680090001086,205.47680090001086,205.47680090001086,205.49058179999702,206.48975609999616,206.48975609999616,207.98971539997729,x,0,1.4950714000151493,None,293371,001,2024-10-16_15h55.48.869,4.0 Motor Sequence Learning,2024.1.5,None,2024-10-16 15h55.58.497276 +0530,
-50,x,0,0,0,2,15,0,60,0,208.00734070001636,,207.9916032999754,208.00734070001636,208.9909650000045,208.9909650000045,208.9909650000045,208.9909650000045,209.0040878999862,210.00330450001638,210.00330450001638,213.0689973999979,v,0,3.050712199998088,None,293371,001,2024-10-16_15h55.48.869,4.0 Motor Sequence Learning,2024.1.5,None,2024-10-16 15h55.58.497276 +0530,
150,v,0,0,0,2,15,1,61,1,213.08722459996352,,213.07087709999178,213.08722459996352,214.06966149999062,214.06966149999062,214.06966149999062,214.06966149999062,214.08346260001417,215.08260239998344,215.08260239998344,217.16490909998538,z,0,2.073080600006506,None,293371,001,2024-10-16_15h55.48.869,4.0 Motor Sequence Learning,2024.1.5,None,2024-10-16 15h55.58.497276 +0530,
50,c,0,0,0,2,15,2,62,2,217.18333019997226,,217.1658466999652,217.18333019997226,218.16619429999264,218.16619429999264,218.16619429999264,218.16619429999264,218.18026980001014,219.17916469997726,219.17916469997726,220.380094299966,c,1,1.1975870999740437,None,293371,001,2024-10-16_15h55.48.869,4.0 Motor Sequence Learning,2024.1.5,None,2024-10-16 15h55.58.497276 +0530,
-150,z,0,0,0,2,15,3,63,3,220.39737590000732,,220.38230519997887,220.39737590000732,221.3941274000099,221.3941274000099,221.3941274000099,221.3941274000099,221.3941274000099,222.39320339995902,222.39320339995902,223.4604691999848,x,0,1.0572673000278883,None,293371,001,2024-10-16_15h55.48.869,4.0 Motor Sequence Learning,2024.1.5,None,2024-10-16 15h55.58.497276 +0530,
-50,x,0,0,0,2,16,0,64,0,223.47820780001348,,223.4623302000109,223.47820780001348,224.46116449998226,224.46116449998226,224.46116449998226,224.46116449998226,224.47504859999754,225.47416139999405,225.47416139999405,226.40835280000465,v,0,0.9198318000417203,None,293371,001,2024-10-16_15h55.48.869,4.0 Motor Sequence Learning,2024.1.5,None,2024-10-16 15h55.58.497276 +0530,
150,v,0,0,0,2,16,1,65,1,226.4258886000025,,226.41053230001125,226.4258886000025,227.42264040000737,227.42264040000737,227.42264040000737,227.42264040000737,227.42264040000737,228.4218283999944,228.4218283999944,229.12292519997573,z,0,0.6965106000425294,None,293371,001,2024-10-16_15h55.48.869,4.0 Motor Sequence Learning,2024.1.5,None,2024-10-16 15h55.58.497276 +0530,
50,c,0,0,0,2,16,2,66,2,229.1403491999954,,229.12470599997323,229.1403491999954,230.13677529996494,230.13677529996494,230.13677529996494,230.13677529996494,230.13677529996494,231.13595249998616,231.13595249998616,231.6034946999862,c,1,0.45886469999095425,None,293371,001,2024-10-16_15h55.48.869,4.0 Motor Sequence Learning,2024.1.5,None,2024-10-16 15h55.58.497276 +0530,
-150,z,0,0,0,2,16,3,67,3,231.6215388000128,,231.60588419996202,231.6215388000128,232.6044230000116,232.6044230000116,232.6044230000116,232.6044230000116,232.61831719998736,233.61729009996634,233.61729009996634,235.13399840000784,x,0,1.5075710999662988,None,293371,001,2024-10-16_15h55.48.869,4.0 Motor Sequence Learning,2024.1.5,None,2024-10-16 15h55.58.497276 +0530,
-50,x,0,0,0,2,17,0,68,0,235.15231309999945,,235.13563839998096,235.15231309999945,236.13461199996527,236.13461199996527,236.13461199996527,236.13461199996527,236.16545849997783,237.14797379996162,237.14797379996162,238.49863069999265,c,0,1.3480862000142224,None,293371,001,2024-10-16_15h55.48.869,4.0 Motor Sequence Learning,2024.1.5,None,2024-10-16 15h55.58.497276 +0530,
150,v,0,0,0,2,17,1,69,1,238.51581269997405,,238.5004675000091,238.51581269997405,239.5127824000083,239.5127824000083,239.5127824000083,239.5127824000083,239.5127824000083,240.51179909997154,240.51179909997154,241.47899069997948,z,0,0.9519570000120439,None,293371,001,2024-10-16_15h55.48.869,4.0 Motor Sequence Learning,2024.1.5,None,2024-10-16 15h55.58.497276 +0530,
50,c,0,0,0,2,17,2,70,2,241.49704809999093,,241.48097520001465,241.49704809999093,242.4794790999731,242.4794790999731,242.4794790999731,242.4794790999731,242.49354339996353,243.49282260000473,243.49282260000473,245.45923809998203,c,1,1.9618870999547653,None,293371,001,2024-10-16_15h55.48.869,4.0 Motor Sequence Learning,2024.1.5,None,2024-10-16 15h55.58.497276 +0530,
-150,z,0,0,0,2,17,3,71,3,245.4772100999835,,245.4618000999908,245.4772100999835,246.4733736999915,246.4733736999915,246.4733736999915,246.4733736999915,246.4733736999915,247.4724838999682,247.4724838999682,248.7726595000131,x,0,1.2883209999999963,None,293371,001,2024-10-16_15h55.48.869,4.0 Motor Sequence Learning,2024.1.5,None,2024-10-16 15h55.58.497276 +0530,
-50,x,0,0,0,2,18,0,72,0,248.79079549998278,,248.77464089996647,248.79079549998278,249.7738970000064,249.7738970000064,249.7738970000064,249.7738970000064,249.78773919999367,250.7866231999942,250.7866231999942,252.20346350001637,v,0,1.3997258000308648,None,293371,001,2024-10-16_15h55.48.869,4.0 Motor Sequence Learning,2024.1.5,None,2024-10-16 15h55.58.497276 +0530,
150,v,0,0,0,2,18,1,73,1,252.2210039999918,,252.20564279996324,252.2210039999918,253.20412800001213,253.20412800001213,253.20412800001213,253.20412800001213,253.21782319998601,254.21698639995884,254.21698639995884,254.98468140000477,z,0,0.7569445999688469,None,293371,001,2024-10-16_15h55.48.869,4.0 Motor Sequence Learning,2024.1.5,None,2024-10-16 15h55.58.497276 +0530,
50,c,0,0,0,2,18,2,74,2,255.00224000000162,,254.98647060000803,255.00224000000162,255.9852274999721,255.9852274999721,255.9852274999721,255.9852274999721,255.99920089996886,256.99819859996205,256.99819859996205,257.4504008999793,c,1,0.4503293000161648,None,293371,001,2024-10-16_15h55.48.869,4.0 Motor Sequence Learning,2024.1.5,None,2024-10-16 15h55.58.497276 +0530,
-150,z,0,0,0,2,18,3,75,3,257.4673029999831,,257.4520665999735,257.4673029999831,258.4636274999939,258.4636274999939,258.4636274999939,258.4636274999939,258.4636274999939,259.46247109997785,259.46247109997785,259.98094749997836,z,1,0.5112963999854401,None,293371,001,2024-10-16_15h55.48.869,4.0 Motor Sequence Learning,2024.1.5,None,2024-10-16 15h55.58.497276 +0530,
-50,x,0,0,0,2,19,0,76,0,259.9986608999898,,259.98280210001394,259.9986608999898,260.99497830000473,260.99497830000473,260.99497830000473,260.99497830000473,260.99497830000473,261.99423159996513,261.99423159996513,263.07793679996394,v,0,1.0735852999496274,None,293371,001,2024-10-16_15h55.48.869,4.0 Motor Sequence Learning,2024.1.5,None,2024-10-16 15h55.58.497276 +0530,
150,v,0,0,0,2,19,1,77,1,263.0961177999852,,263.07987979997415,263.0961177999852,264.07855460001156,264.07855460001156,264.07855460001156,264.07855460001156,264.09254009998403,265.0916063999757,265.0916063999757,265.94223950000014,z,0,0.8450473999837413,None,293371,001,2024-10-16_15h55.48.869,4.0 Motor Sequence Learning,2024.1.5,None,2024-10-16 15h55.58.497276 +0530,
50,c,0,0,0,2,19,2,78,2,265.95999850000953,,265.94375529995887,265.95999850000953,266.9430288000149,266.9430288000149,266.9430288000149,266.9430288000149,266.9564787999843,267.9556584999664,267.9556584999664,268.70660009997664,c,1,0.7425990999909118,None,293371,001,2024-10-16_15h55.48.869,4.0 Motor Sequence Learning,2024.1.5,None,2024-10-16 15h55.58.497276 +0530,
-150,z,0,0,0,2,19,3,79,3,268.724387699971,,268.7083389000036,268.724387699971,269.70720989996335,269.70720989996335,269.70720989996335,269.70720989996335,269.72135760000674,270.7203407000052,270.7203407000052,271.67150900000706,x,0,0.9474149000016041,None,293371,001,2024-10-16_15h55.48.869,4.0 Motor Sequence Learning,2024.1.5,None,2024-10-16 15h55.58.497276 +0530,
-50,x,0,0,0,2,20,0,80,0,271.68898129998706,,271.67398479999974,271.68898129998706,272.6854236999643,272.6854236999643,272.6854236999643,272.6854236999643,272.6854236999643,273.68468050000956,273.68468050000956,274.25234289997024,v,0,0.5552783000166528,None,293371,001,2024-10-16_15h55.48.869,4.0 Motor Sequence Learning,2024.1.5,None,2024-10-16 15h55.58.497276 +0530,
150,v,0,0,0,2,20,1,81,1,274.27045139996335,,274.25463549996493,274.27045139996335,275.26938680000603,275.26938680000603,275.26938680000603,275.26938680000603,275.28324899997097,276.2658223999897,276.2658223999897,276.83311100001447,z,0,0.5516482000239193,None,293371,001,2024-10-16_15h55.48.869,4.0 Motor Sequence Learning,2024.1.5,None,2024-10-16 15h55.58.497276 +0530,
50,c,0,0,0,2,20,2,82,2,276.8509289000067,,276.8351164999767,276.8509289000067,277.83376979996683,277.83376979996683,277.83376979996683,277.83376979996683,277.8476179999998,278.84674999996787,278.84674999996787,279.18211679998785,c,1,0.32713629998033866,None,293371,001,2024-10-16_15h55.48.869,4.0 Motor Sequence Learning,2024.1.5,None,2024-10-16 15h55.58.497276 +0530,
-150,z,0,0,0,2,20,3,83,3,279.19895699998597,,279.18401069997344,279.19895699998597,280.182140799996,280.182140799996,280.182140799996,280.182140799996,280.19568080001045,281.1949199999799,281.1949199999799,281.5133968999726,x,0,0.31475820002378896,None,293371,001,2024-10-16_15h55.48.869,4.0 Motor Sequence Learning,2024.1.5,None,2024-10-16 15h55.58.497276 +0530,
-50,x,0,0,0,2,21,0,84,0,281.5309263999807,,281.51564220001455,281.5309263999807,282.5273898000014,282.5273898000014,282.5273898000014,282.5273898000014,282.5273898000014,283.52646470000036,283.52646470000036,284.2435882000136,v,0,0.7088993000215851,None,293371,001,2024-10-16_15h55.48.869,4.0 Motor Sequence Learning,2024.1.5,None,2024-10-16 15h55.58.497276 +0530,
150,v,0,0,0,2,21,1,85,1,284.2615223999601,,284.24552210001275,284.2615223999601,285.2442665999988,285.2442665999988,285.2442665999988,285.2442665999988,285.25842709996505,286.25844000000507,286.25844000000507,286.85895600001095,z,0,0.5854109000065364,None,293371,001,2024-10-16_15h55.48.869,4.0 Motor Sequence Learning,2024.1.5,None,2024-10-16 15h55.58.497276 +0530,
50,c,0,0,0,2,21,2,86,2,286.8765046999906,,286.8610057999613,286.8765046999906,287.8729665999999,287.8729665999999,287.8729665999999,287.8729665999999,287.8729665999999,288.8719037999981,288.8719037999981,289.20630879997043,c,1,0.3304993000347167,None,293371,001,2024-10-16_15h55.48.869,4.0 Motor Sequence Learning,2024.1.5,None,2024-10-16 15h55.58.497276 +0530,
-150,z,0,0,0,2,21,3,87,3,289.2241063999827,,289.2087654999923,289.2241063999827,290.2074743999983,290.2074743999983,290.2074743999983,290.2074743999983,290.2210192999919,291.2200324999867,291.2200324999867,291.5214521000162,x,0,0.2964782000053674,None,293371,001,2024-10-16_15h55.48.869,4.0 Motor Sequence Learning,2024.1.5,None,2024-10-16 15h55.58.497276 +0530,
-50,x,0,0,0,2,22,0,88,0,291.5384344999911,,291.52407559996936,291.5384344999911,292.5356806999771,292.5356806999771,292.5356806999771,292.5356806999771,292.5356806999771,293.5347277999972,293.5347277999972,293.903296399978,v,0,0.3545266999863088,None,293371,001,2024-10-16_15h55.48.869,4.0 Motor Sequence Learning,2024.1.5,None,2024-10-16 15h55.58.497276 +0530,
150,v,0,0,0,2,22,1,89,1,293.9205489999731,,293.90524469997035,293.9205489999731,294.917184299964,294.917184299964,294.917184299964,294.917184299964,294.917184299964,295.9162280000164,295.9162280000164,296.2175029999926,z,0,0.2865760999848135,None,293371,001,2024-10-16_15h55.48.869,4.0 Motor Sequence Learning,2024.1.5,None,2024-10-16 15h55.58.497276 +0530,
50,c,0,0,0,2,22,2,90,2,296.23544879996916,,296.21975889999885,296.23544879996916,297.2179455999867,297.2179455999867,297.2179455999867,297.2179455999867,297.23180239996873,298.231386200001,298.231386200001,298.61534029996255,c,1,0.37157710001338273,None,293371,001,2024-10-16_15h55.48.869,4.0 Motor Sequence Learning,2024.1.5,None,2024-10-16 15h55.58.497276 +0530,
-150,z,0,0,0,2,22,3,91,3,298.63294789998326,,298.61778189998586,298.63294789998326,299.61616539995885,299.61616539995885,299.61616539995885,299.61616539995885,299.629303099995,300.62892789999023,300.62892789999023,301.39624599996023,x,0,0.7609545000013895,None,293371,001,2024-10-16_15h55.48.869,4.0 Motor Sequence Learning,2024.1.5,None,2024-10-16 15h55.58.497276 +0530,
-50,x,0,0,0,2,23,0,92,0,301.4145209999988,,301.398125000007,301.4145209999988,302.3972273999825,302.3972273999825,302.3972273999825,302.3972273999825,302.41119459999027,303.410149000003,303.410149000003,303.7781382999965,v,0,0.35197110002627596,None,293371,001,2024-10-16_15h55.48.869,4.0 Motor Sequence Learning,2024.1.5,None,2024-10-16 15h55.58.497276 +0530,
150,v,0,0,0,2,23,1,93,1,303.79586479999125,,303.78054050001083,303.79586479999125,304.79527780000353,304.79527780000353,304.79527780000353,304.79527780000353,304.8091729999869,305.7915902999812,305.7915902999812,306.1258617999847,z,0,0.32920239999657497,None,293371,001,2024-10-16_15h55.48.869,4.0 Motor Sequence Learning,2024.1.5,None,2024-10-16 15h55.58.497276 +0530,
50,c,0,0,0,2,23,2,94,2,306.14395679999143,,306.12753459997475,306.14395679999143,307.1263582999818,307.1263582999818,307.1263582999818,307.1263582999818,307.14053119998425,308.13978480000515,308.13978480000515,308.49160879995907,c,1,0.34575799998128787,None,293371,001,2024-10-16_15h55.48.869,4.0 Motor Sequence Learning,2024.1.5,None,2024-10-16 15h55.58.497276 +0530,
-150,z,0,0,0,2,23,3,95,3,308.50866930000484,,308.49358040001243,308.50866930000484,309.50527869997313,309.50527869997313,309.50527869997313,309.50527869997313,309.50527869997313,310.50444529997185,310.50444529997185,310.8383581999806,x,0,0.3282516000326723,None,293371,001,2024-10-16_15h55.48.869,4.0 Motor Sequence Learning,2024.1.5,None,2024-10-16 15h55.58.497276 +0530,
-50,x,0,0,0,2,24,0,96,0,310.85680239996873,,310.84009869996225,310.85680239996873,311.8394054999808,311.8394054999808,311.8394054999808,311.8394054999808,311.85331269999733,312.85242959996685,312.85242959996685,313.7036511999904,v,0,0.8452922999858856,None,293371,001,2024-10-16_15h55.48.869,4.0 Motor Sequence Learning,2024.1.5,None,2024-10-16 15h55.58.497276 +0530,
150,v,0,0,0,2,24,1,97,1,313.72106549999444,,313.7054684999748,313.72106549999444,314.7173121999949,314.7173121999949,314.7173121999949,314.7173121999949,314.7173121999949,315.7161361000035,315.7161361000035,316.284282299981,z,0,0.5611849999986589,None,293371,001,2024-10-16_15h55.48.869,4.0 Motor Sequence Learning,2024.1.5,None,2024-10-16 15h55.58.497276 +0530,
50,c,0,0,0,2,24,2,98,2,316.3018111999845,,316.2860079999664,316.3018111999845,317.28515199996764,317.28515199996764,317.28515199996764,317.28515199996764,317.2986668999656,318.29784020001534,318.29784020001534,319.7650886999909,c,1,1.4647246000240557,None,293371,001,2024-10-16_15h55.48.869,4.0 Motor Sequence Learning,2024.1.5,None,2024-10-16 15h55.58.497276 +0530,
-150,z,0,0,0,2,24,3,99,3,319.78236209996976,,319.76692550000735,319.78236209996976,320.76523520000046,320.76523520000046,320.76523520000046,320.76523520000046,320.77916450001067,321.77865739999106,321.77865739999106,322.2960967000108,x,0,0.5093200000119396,None,293371,001,2024-10-16_15h55.48.869,4.0 Motor Sequence Learning,2024.1.5,None,2024-10-16 15h55.58.497276 +0530,
-50,x,0,0,0,2,25,0,100,0,322.31391869997606,,322.2977279999759,322.31391869997606,323.29654840001604,323.29654840001604,323.29654840001604,323.29654840001604,323.31031490000896,324.30936020001536,324.30936020001536,324.69405859999824,v,0,0.3716050999937579,None,293371,001,2024-10-16_15h55.48.869,4.0 Motor Sequence Learning,2024.1.5,None,2024-10-16 15h55.58.497276 +0530,
150,v,0,0,0,2,25,1,101,1,324.7117751999758,,324.6959938000073,324.7117751999758,325.694735499972,325.694735499972,325.694735499972,325.694735499972,325.7083939000149,326.707411499985,326.707411499985,328.62429100001464,z,0,1.9066272999625653,None,293371,001,2024-10-16_15h55.48.869,4.0 Motor Sequence Learning,2024.1.5,None,2024-10-16 15h55.58.497276 +0530,
50,c,0,0,0,2,25,2,102,2,328.6418427999597,,328.62611579999793,328.6418427999597,329.63869419996627,329.63869419996627,329.63869419996627,329.63869419996627,329.63869419996627,330.6378141999594,330.6378141999594,331.6389277999988,c,1,0.9983748000231571,None,293371,001,2024-10-16_15h55.48.869,4.0 Motor Sequence Learning,2024.1.5,None,2024-10-16 15h55.58.497276 +0530,
-150,z,0,0,0,2,25,3,103,3,331.65586820000317,,331.6413908000104,331.65586820000317,332.6525638999883,332.6525638999883,332.6525638999883,332.6525638999883,332.6525638999883,333.6517454999848,333.6517454999848,334.7022944999626,x,0,1.0392917999997735,None,293371,001,2024-10-16_15h55.48.869,4.0 Motor Sequence Learning,2024.1.5,None,2024-10-16 15h55.58.497276 +0530,
-50,x,0,0,0,2,26,0,104,0,334.72050579998177,,334.7042572000064,334.72050579998177,335.70258489996195,335.70258489996195,335.70258489996195,335.70258489996195,335.73330889997305,336.71612299996195,336.71612299996195,337.0675523999962,v,0,0.34617699997033924,None,293371,001,2024-10-16_15h55.48.869,4.0 Motor Sequence Learning,2024.1.5,None,2024-10-16 15h55.58.497276 +0530,
150,v,0,0,0,2,26,1,105,1,337.08523470000364,,337.06954389996827,337.08523470000364,338.08164360001683,338.08164360001683,338.08164360001683,338.08164360001683,338.08164360001683,339.08074959996156,339.08074959996156,339.4989831999992,z,0,0.4063586000120267,None,293371,001,2024-10-16_15h55.48.869,4.0 Motor Sequence Learning,2024.1.5,None,2024-10-16 15h55.58.497276 +0530,
50,c,0,0,0,2,26,2,106,2,339.5166546999826,,339.50166559999343,339.5166546999826,340.5157010999974,340.5157010999974,340.5157010999974,340.5157010999974,340.529558899987,341.51208339998266,341.51208339998266,342.0463623999967,c,1,0.52038270002231,None,293371,001,2024-10-16_15h55.48.869,4.0 Motor Sequence Learning,2024.1.5,None,2024-10-16 15h55.58.497276 +0530,
-150,z,0,0,0,2,26,3,107,3,342.0644771999796,,342.048314100015,342.0644771999796,343.0471736000036,343.0471736000036,343.0471736000036,343.0471736000036,343.0608471999876,344.0600326000131,344.0600326000131,344.4620384000009,x,0,0.4000419999938458,None,293371,001,2024-10-16_15h55.48.869,4.0 Motor Sequence Learning,2024.1.5,None,2024-10-16 15h55.58.497276 +0530,
-50,x,0,0,0,2,27,0,108,0,344.4791096000117,,344.46377380000195,344.4791096000117,345.47552979999455,345.47552979999455,345.47552979999455,345.47552979999455,345.47552979999455,346.4747680000146,346.4747680000146,347.408840899996,v,0,0.9284525000257418,None,293371,001,2024-10-16_15h55.48.869,4.0 Motor Sequence Learning,2024.1.5,None,2024-10-16 15h55.58.497276 +0530,
150,v,0,0,0,2,27,1,109,1,347.42666850000387,,347.41072629997507,347.42666850000387,348.4095539000118,348.4095539000118,348.4095539000118,348.4095539000118,348.423089399992,349.42233899998246,349.42233899998246,350.2565110999858,z,0,0.8276900000055321,None,293371,001,2024-10-16_15h55.48.869,4.0 Motor Sequence Learning,2024.1.5,None,2024-10-16 15h55.58.497276 +0530,
50,c,0,0,0,2,27,2,110,2,350.27433589997236,,350.2582512999652,350.27433589997236,351.270846600004,351.270846600004,351.270846600004,351.270846600004,351.270846600004,352.2699821999995,352.2699821999995,353.5701659999904,c,1,1.2902622999972664,None,293371,001,2024-10-16_15h55.48.869,4.0 Motor Sequence Learning,2024.1.5,None,2024-10-16 15h55.58.497276 +0530,
-150,z,0,0,0,2,27,3,111,3,353.58797409996623,,353.57202249998227,353.58797409996623,354.57104459998664,354.57104459998664,354.57104459998664,354.57104459998664,354.58454329997767,355.5838128000032,355.5838128000032,356.2514133999939,x,0,0.6544891000376083,None,293371,001,2024-10-16_15h55.48.869,4.0 Motor Sequence Learning,2024.1.5,None,2024-10-16 15h55.58.497276 +0530,
-50,x,0,0,0,2,28,0,112,0,356.26908479997655,,356.25330689997645,356.26908479997655,357.25225799996406,357.25225799996406,357.25225799996406,357.25225799996406,357.26601479999954,358.26496200001566,358.26496200001566,358.99945649999427,v,0,0.7226469999877736,None,293371,001,2024-10-16_15h55.48.869,4.0 Motor Sequence Learning,2024.1.5,None,2024-10-16 15h55.58.497276 +0530,
150,v,0,0,0,2,28,1,113,1,359.01689699996496,,359.0013810999808,359.01689699996496,360.0137081000139,360.0137081000139,360.0137081000139,360.0137081000139,360.0137081000139,361.0127867999836,361.0127867999836,362.3472347999923,z,0,1.3323337000329047,None,293371,001,2024-10-16_15h55.48.869,4.0 Motor Sequence Learning,2024.1.5,None,2024-10-16 15h55.58.497276 +0530,
50,c,0,0,0,2,28,2,114,2,362.36416519997874,,362.349240200012,362.36416519997874,363.3610387999797,363.3610387999797,363.3610387999797,363.3610387999797,363.3610387999797,364.3601291999803,364.3601291999803,365.56026709999423,c,1,1.1833565999986604,None,293371,001,2024-10-16_15h55.48.869,4.0 Motor Sequence Learning,2024.1.5,None,2024-10-16 15h55.58.497276 +0530,
-150,z,0,0,0,2,28,3,115,3,365.57833489996847,,365.56184400001075,365.57833489996847,366.56103310000617,366.56103310000617,366.56103310000617,366.56103310000617,366.57470930001,367.57400259998394,367.57400259998394,370.70642850000877,x,0,3.124317800044082,None,293371,001,2024-10-16_15h55.48.869,4.0 Motor Sequence Learning,2024.1.5,None,2024-10-16 15h55.58.497276 +0530,
-50,x,0,0,0,2,29,0,116,0,370.7239183000056,,370.7083747999859,370.7239183000056,371.72019099997124,371.72019099997124,371.72019099997124,371.72019099997124,371.72019099997124,372.71958609996364,372.71958609996364,377.4171758000157,v,0,4.681177699996624,None,293371,001,2024-10-16_15h55.48.869,4.0 Motor Sequence Learning,2024.1.5,None,2024-10-16 15h55.58.497276 +0530,
150,v,0,0,0,2,29,1,117,1,377.43511419999413,,377.4189703000011,377.43511419999413,378.417809400009,378.417809400009,378.417809400009,378.417809400009,378.4318600000115,379.43106039997656,379.43106039997656,380.46527699998114,z,0,1.0285710000316612,None,293371,001,2024-10-16_15h55.48.869,4.0 Motor Sequence Learning,2024.1.5,None,2024-10-16 15h55.58.497276 +0530,
50,c,0,0,0,2,29,2,118,2,380.48295989999315,,380.46714859997155,380.48295989999315,381.4651169999852,381.4651169999852,381.4651169999852,381.4651169999852,381.4960223999806,382.4783877999871,382.4783877999871,383.8290553999832,c,1,1.3365917999763042,None,293371,001,2024-10-16_15h55.48.869,4.0 Motor Sequence Learning,2024.1.5,None,2024-10-16 15h55.58.497276 +0530,
-150,z,0,0,0,2,29,3,119,3,383.84688769996865,,383.83078590000514,383.84688769996865,384.84597879997455,384.84597879997455,384.84597879997455,384.84597879997455,384.8597609999706,385.8422821999993,385.8422821999993,386.19365699996706,x,0,0.3470659999875352,None,293371,001,2024-10-16_15h55.48.869,4.0 Motor Sequence Learning,2024.1.5,None,2024-10-16 15h55.58.497276 +0530,
-50,x,0,0,0,2,30,0,120,0,386.2114130000118,,386.19548669998767,386.2114130000118,387.1940447000088,387.1940447000088,387.1940447000088,387.1940447000088,387.20774779998465,388.206896699965,388.206896699965,388.5413028000039,v,0,0.3246294000418857,None,293371,001,2024-10-16_15h55.48.869,4.0 Motor Sequence Learning,2024.1.5,None,2024-10-16 15h55.58.497276 +0530,
150,v,0,0,0,2,30,1,121,1,388.55937029997585,,388.5430144999991,388.55937029997585,389.54227729997365,389.54227729997365,389.54227729997365,389.54227729997365,389.55584779998753,390.5550370999845,390.5550370999845,391.97229519998655,z,0,1.4039178999955766,None,293371,001,2024-10-16_15h55.48.869,4.0 Motor Sequence Learning,2024.1.5,None,2024-10-16 15h55.58.497276 +0530,
50,c,0,0,0,2,30,2,122,2,391.9897782999906,,391.97405530000106,391.9897782999906,392.97265840001637,392.97265840001637,392.97265840001637,392.97265840001637,392.98665269999765,393.98554169997806,393.98554169997806,395.11967220000224,c,1,1.1223358999704942,None,293371,001,2024-10-16_15h55.48.869,4.0 Motor Sequence Learning,2024.1.5,None,2024-10-16 15h55.58.497276 +0530,
-150,z,0,0,0,2,30,3,123,3,395.1374470000155,,395.1216954999836,395.1374470000155,396.1339179999777,396.1339179999777,396.1339179999777,396.1339179999777,396.1339179999777,397.13308820000384,397.13308820000384,397.584137799975,x,0,0.44905129994731396,None,293371,001,2024-10-16_15h55.48.869,4.0 Motor Sequence Learning,2024.1.5,None,2024-10-16 15h55.58.497276 +0530,
-50,x,0,0,0,2,31,0,124,0,397.601495800016,,397.58590810000896,397.601495800016,398.5846683999989,398.5846683999989,398.5846683999989,398.5846683999989,398.59847699996317,399.5975791999954,399.5975791999954,399.93222650000826,v,0,0.33075349999126047,None,293371,001,2024-10-16_15h55.48.869,4.0 Motor Sequence Learning,2024.1.5,None,2024-10-16 15h55.58.497276 +0530,
150,v,0,0,0,2,31,1,125,1,399.9499886999838,,399.93407139997,399.9499886999838,400.9329135000007,400.9329135000007,400.9329135000007,400.9329135000007,400.94653359998483,401.94554190000053,401.94554190000053,403.6955736000091,z,0,1.745692499971483,None,293371,001,2024-10-16_15h55.48.869,4.0 Motor Sequence Learning,2024.1.5,None,2024-10-16 15h55.58.497276 +0530,
50,c,0,0,0,2,31,2,126,2,403.71365890000015,,403.6973895999836,403.71365890000015,404.6962016999605,404.6962016999605,404.6962016999605,404.6962016999605,404.71026729996083,405.70966599998064,405.70966599998064,406.0939184000017,c,1,0.3745541000389494,None,293371,001,2024-10-16_15h55.48.869,4.0 Motor Sequence Learning,2024.1.5,None,2024-10-16 15h55.58.497276 +0530,
-150,z,0,0,0,2,31,3,127,3,406.1118414999801,,406.09586860000854,406.1118414999801,407.0941915999865,407.0941915999865,407.0941915999865,407.0941915999865,407.1082144000102,408.10742349998327,408.10742349998327,409.1080637999694,x,0,0.9854465999524109,None,293371,001,2024-10-16_15h55.48.869,4.0 Motor Sequence Learning,2024.1.5,None,2024-10-16 15h55.58.497276 +0530,
-50,x,0,0,0,2,32,0,128,0,409.12555200001225,,409.1103606999968,409.12555200001225,410.12239779997617,410.12239779997617,410.12239779997617,410.12239779997617,410.12239779997617,411.12159039999824,411.12159039999824,412.0219769999967,v,0,0.8907299999846146,None,293371,001,2024-10-16_15h55.48.869,4.0 Motor Sequence Learning,2024.1.5,None,2024-10-16 15h55.58.497276 +0530,
150,v,0,0,0,2,32,1,129,1,412.0400284999632,,412.023691600014,412.0400284999632,413.02272249996895,413.02272249996895,413.02272249996895,413.02272249996895,413.03643759997794,414.0354524999857,414.0354524999857,414.7701750000124,z,0,0.7281369999982417,None,293371,001,2024-10-16_15h55.48.869,4.0 Motor Sequence Learning,2024.1.5,None,2024-10-16 15h55.58.497276 +0530,
50,c,0,0,0,2,32,2,130,2,414.7874319999828,,414.77206379995914,414.7874319999828,415.7706657999661,415.7706657999661,415.7706657999661,415.7706657999661,415.78421050001634,416.7832688000053,416.7832688000053,417.78495120001025,c,1,0.9992160000256263,None,293371,001,2024-10-16_15h55.48.869,4.0 Motor Sequence Learning,2024.1.5,None,2024-10-16 15h55.58.497276 +0530,
-150,z,0,0,0,2,32,3,131,3,417.8022738000145,,417.78668129997095,417.8022738000145,418.801930000016,418.801930000016,418.801930000016,418.801930000016,418.8152866999735,419.7977840999956,419.7977840999956,420.6648841999704,x,0,0.8501245000516064,None,293371,001,2024-10-16_15h55.48.869,4.0 Motor Sequence Learning,2024.1.5,None,2024-10-16 15h55.58.497276 +0530,
-50,x,0,0,0,2,33,0,132,0,420.6828741999925,,420.6667035999708,420.6828741999925,421.66599349997705,421.66599349997705,421.66599349997705,421.66599349997705,421.6795068999636,422.6785379999783,422.6785379999783,423.4628212999669,v,0,0.7676101999823004,None,293371,001,2024-10-16_15h55.48.869,4.0 Motor Sequence Learning,2024.1.5,None,2024-10-16 15h55.58.497276 +0530,
150,v,0,0,0,2,33,1,133,1,423.4805786999641,,423.46473080001306,423.4805786999641,424.46344389999285,424.46344389999285,424.46344389999285,424.46344389999285,424.4771101999795,425.4763554999954,425.4763554999954,426.41070509998826,z,0,0.9172851000330411,None,293371,001,2024-10-16_15h55.48.869,4.0 Motor Sequence Learning,2024.1.5,None,2024-10-16 15h55.58.497276 +0530,
50,c,0,0,0,2,33,2,134,2,426.42801029997645,,426.4129501999705,426.42801029997645,427.41140189999714,427.41140189999714,427.41140189999714,427.41140189999714,427.4246464999742,428.4238510999712,428.4238510999712,428.9247612999752,c,1,0.49431929999263957,None,293371,001,2024-10-16_15h55.48.869,4.0 Motor Sequence Learning,2024.1.5,None,2024-10-16 15h55.58.497276 +0530,
-150,z,0,0,0,2,33,3,135,3,428.9430730000022,,428.926444599987,428.9430730000022,429.9254527000012,429.9254527000012,429.9254527000012,429.9254527000012,429.9394908999675,430.9387522999896,430.9387522999896,432.2889361999696,x,0,1.3375169999781065,None,293371,001,2024-10-16_15h55.48.869,4.0 Motor Sequence Learning,2024.1.5,None,2024-10-16 15h55.58.497276 +0530,
-50,x,0,0,0,2,34,0,136,0,432.30677660001675,,432.2909555999795,432.30677660001675,433.2896096999757,433.2896096999757,433.2896096999757,433.2896096999757,433.3033684999682,434.3026735999738,434.3026735999738,434.7374742999673,v,0,0.42118619999382645,None,293371,001,2024-10-16_15h55.48.869,4.0 Motor Sequence Learning,2024.1.5,None,2024-10-16 15h55.58.497276 +0530,
150,v,0,0,0,2,34,1,137,1,434.75497519999044,,434.73951579997083,434.75497519999044,435.7537455999991,435.7537455999991,435.7537455999991,435.7537455999991,435.7675664999988,436.750612200005,436.750612200005,437.75111159996595,z,0,0.9890340000274591,None,293371,001,2024-10-16_15h55.48.869,4.0 Motor Sequence Learning,2024.1.5,None,2024-10-16 15h55.58.497276 +0530,
50,c,0,0,0,2,34,2,138,2,437.76884779997636,,437.7530892000068,437.76884779997636,438.75181089999387,438.75181089999387,438.75181089999387,438.75181089999387,438.7653641999932,439.76424150000094,439.76424150000094,440.7662540000165,c,1,0.999203099985607,None,293371,001,2024-10-16_15h55.48.869,4.0 Motor Sequence Learning,2024.1.5,None,2024-10-16 15h55.58.497276 +0530,
-150,z,0,0,0,2,34,3,139,3,440.7833722999785,,440.768540799967,440.7833722999785,441.78245579998475,441.78245579998475,441.78245579998475,441.78245579998475,441.7964509999729,442.7788656000048,442.7788656000048,444.42898279998917,x,0,1.632912499946542,None,293371,001,2024-10-16_15h55.48.869,4.0 Motor Sequence Learning,2024.1.5,None,2024-10-16 15h55.58.497276 +0530,
-50,x,0,0,0,2,35,0,140,0,444.4469020999968,,444.43077559996163,444.4469020999968,445.4295533999684,445.4295533999684,445.4295533999684,445.4295533999684,445.443375199975,446.44254449999426,446.44254449999426,448.1090414999635,v,0,1.6510859999689274,None,293371,001,2024-10-16_15h55.48.869,4.0 Motor Sequence Learning,2024.1.5,None,2024-10-16 15h55.58.497276 +0530,
150,v,0,0,0,2,35,1,141,1,448.1268672000151,,448.11090339999646,448.1268672000151,449.1096908999607,449.1096908999607,449.1096908999607,449.1096908999607,449.1237304999959,450.12288999999873,450.12288999999873,450.5741689999704,z,0,0.4458450999809429,None,293371,001,2024-10-16_15h55.48.869,4.0 Motor Sequence Learning,2024.1.5,None,2024-10-16 15h55.58.497276 +0530,
50,c,0,0,0,2,35,2,142,2,450.59153849998256,,450.57624239998404,450.59153849998256,451.5885016999673,451.5885016999673,451.5885016999673,451.5885016999673,451.5885016999673,452.5874238999677,452.5874238999677,453.0053147000144,c,1,0.4152066000388004,None,293371,001,2024-10-16_15h55.48.869,4.0 Motor Sequence Learning,2024.1.5,None,2024-10-16 15h55.58.497276 +0530,
-150,z,0,0,0,2,35,3,143,3,453.0230271999608,,453.007431200007,453.0230271999608,454.00569909997284,454.00569909997284,454.00569909997284,454.00569909997284,454.01986639999086,455.0189369000145,455.0189369000145,455.53625979996286,x,0,0.504381500009913,None,293371,001,2024-10-16_15h55.48.869,4.0 Motor Sequence Learning,2024.1.5,None,2024-10-16 15h55.58.497276 +0530,
-50,x,0,0,0,2,36,0,144,0,455.5541257999721,,455.53855399996974,455.5541257999721,456.53706339997007,456.53706339997007,456.53706339997007,456.53706339997007,456.55086680001114,457.5497424000059,457.5497424000059,457.9183040999924,v,0,0.3613328000064939,None,293371,001,2024-10-16_15h55.48.869,4.0 Motor Sequence Learning,2024.1.5,None,2024-10-16 15h55.58.497276 +0530,
150,v,0,0,0,2,36,1,145,1,457.9358484999975,,457.92014679999556,457.9358484999975,458.9324687999906,458.9324687999906,458.9324687999906,458.9324687999906,458.9324687999906,459.9315802999772,459.9315802999772,460.81576500000665,z,0,0.8786438999813981,None,293371,001,2024-10-16_15h55.48.869,4.0 Motor Sequence Learning,2024.1.5,None,2024-10-16 15h55.58.497276 +0530,
50,c,0,0,0,2,36,2,146,2,460.83334800001467,,460.81781179999234,460.83334800001467,461.8298919000081,461.8298919000081,461.8298919000081,461.8298919000081,461.8298919000081,462.8291611999739,462.8291611999739,463.8305745999678,c,1,0.99927430000389,None,293371,001,2024-10-16_15h55.48.869,4.0 Motor Sequence Learning,2024.1.5,None,2024-10-16 15h55.58.497276 +0530,
-150,z,0,0,0,2,36,3,147,3,463.84734249999747,,463.8325748000061,463.84734249999747,464.8440241999924,464.8440241999924,464.8440241999924,464.8440241999924,464.8440241999924,465.8431411999627,465.8431411999627,467.1616050999728,x,0,1.3162680999957956,None,293371,001,2024-10-16_15h55.48.869,4.0 Motor Sequence Learning,2024.1.5,None,2024-10-16 15h55.58.497276 +0530,
-50,x,0,0,0,2,37,0,148,0,467.17833630001405,,467.1636833999655,467.17833630001405,468.17482999997446,468.17482999997446,468.17482999997446,468.17482999997446,468.17482999997446,469.17392969998764,469.17392969998764,470.9898577000131,v,0,1.7994002999621443,None,293371,001,2024-10-16_15h55.48.869,4.0 Motor Sequence Learning,2024.1.5,None,2024-10-16 15h55.58.497276 +0530,
150,v,0,0,0,2,37,1,149,1,471.0084654999664,,470.99156379996566,471.0084654999664,471.9908645999967,471.9908645999967,471.9908645999967,471.9908645999967,472.0048676999868,473.00400129996706,473.00400129996706,474.3049092000001,z,0,1.2989469000021927,None,293371,001,2024-10-16_15h55.48.869,4.0 Motor Sequence Learning,2024.1.5,None,2024-10-16 15h55.58.497276 +0530,
50,c,0,0,0,2,37,2,150,2,474.3222873999621,,474.3069275000016,474.3222873999621,475.3187980999937,475.3187980999937,475.3187980999937,475.3187980999937,475.3187980999937,476.3180094999843,476.3180094999843,476.6860582999652,c,1,0.3549549999879673,None,293371,001,2024-10-16_15h55.48.869,4.0 Motor Sequence Learning,2024.1.5,None,2024-10-16 15h55.58.497276 +0530,
-150,z,0,0,0,2,37,3,151,3,476.70415229996433,,476.6880153999664,476.70415229996433,477.68611279997276,477.68611279997276,477.68611279997276,477.68611279997276,477.7168832999887,478.6993477999931,478.6993477999931,479.61637860001065,x,0,0.9065450999769382,None,293371,001,2024-10-16_15h55.48.869,4.0 Motor Sequence Learning,2024.1.5,None,2024-10-16 15h55.58.497276 +0530,
-50,x,0,0,0,2,38,0,152,0,479.63409820001107,,479.6182163999765,479.63409820001107,480.61718870000914,480.61718870000914,480.61718870000914,480.61718870000914,480.63090839999495,481.63010889996076,481.63010889996076,482.11444769997615,v,0,0.4680395000032149,None,293371,001,2024-10-16_15h55.48.869,4.0 Motor Sequence Learning,2024.1.5,None,2024-10-16 15h55.58.497276 +0530,
150,v,0,0,0,2,38,1,153,1,482.13208429998485,,482.1165284999879,482.13208429998485,483.1153783999616,483.1153783999616,483.1153783999616,483.1153783999616,483.12888390000444,484.128097000008,484.128097000008,484.99571280000964,z,0,0.8601762999896891,None,293371,001,2024-10-16_15h55.48.869,4.0 Motor Sequence Learning,2024.1.5,None,2024-10-16 15h55.58.497276 +0530,
50,c,0,0,0,2,38,2,154,2,485.01331680000294,,484.9975298999925,485.01331680000294,485.99620019999566,485.99620019999566,485.99620019999566,485.99620019999566,486.00999109999975,487.0093546999851,487.0093546999851,487.6433487999602,c,1,0.6256153000285849,None,293371,001,2024-10-16_15h55.48.869,4.0 Motor Sequence Learning,2024.1.5,None,2024-10-16 15h55.58.497276 +0530,
-150,z,0,0,0,2,38,3,155,3,487.66103369998746,,487.64525709999725,487.66103369998746,488.6440901000169,488.6440901000169,488.6440901000169,488.6440901000169,488.6578894999693,489.6570548999589,489.6570548999589,490.5741835999652,x,0,0.9103643000125885,None,293371,001,2024-10-16_15h55.48.869,4.0 Motor Sequence Learning,2024.1.5,None,2024-10-16 15h55.58.497276 +0530,
-50,x,0,0,0,2,39,0,156,0,490.59244719997514,,490.57586179999635,490.59244719997514,491.57484399998793,491.57484399998793,491.57484399998793,491.57484399998793,491.58883329998935,492.5881299999892,492.5881299999892,493.33889720001025,v,0,0.73779480002122,None,293371,001,2024-10-16_15h55.48.869,4.0 Motor Sequence Learning,2024.1.5,None,2024-10-16 15h55.58.497276 +0530,
150,v,0,0,0,2,39,1,157,1,493.356873599987,,493.34105079999426,493.356873599987,494.3394667999819,494.3394667999819,494.3394667999819,494.3394667999819,494.3531687000068,495.3524922999786,495.3524922999786,496.4031583999749,z,0,1.0371837999555282,None,293371,001,2024-10-16_15h55.48.869,4.0 Motor Sequence Learning,2024.1.5,None,2024-10-16 15h55.58.497276 +0530,
50,c,0,0,0,2,39,2,158,2,496.4206147000077,,496.4054576999624,496.4206147000077,497.4169702999643,497.4169702999643,497.4169702999643,497.4169702999643,497.4169702999643,498.4162268000073,498.4162268000073,499.4508373999852,c,1,1.0265623000450432,None,293371,001,2024-10-16_15h55.48.869,4.0 Motor Sequence Learning,2024.1.5,None,2024-10-16 15h55.58.497276 +0530,
-150,z,0,0,0,2,39,3,159,3,499.4682022999623,,499.452670699975,499.4682022999623,500.4512015999644,500.4512015999644,500.4512015999644,500.4512015999644,500.464765599987,501.46393470000476,501.46393470000476,502.6311399000115,x,0,1.1526167999836616,None,293371,001,2024-10-16_15h55.48.869,4.0 Motor Sequence Learning,2024.1.5,None,2024-10-16 15h55.58.497276 +0530,
-50,x,0,0,0,2,40,0,160,0,502.64935249998234,,502.6331167999888,502.64935249998234,503.63187649997417,503.63187649997417,503.63187649997417,503.63187649997417,503.6455328000011,504.64469210000243,504.64469210000243,506.37827300000936,c,0,1.7271571999881417,None,293371,001,2024-10-16_15h55.48.869,4.0 Motor Sequence Learning,2024.1.5,None,2024-10-16 15h55.58.497276 +0530,
150,v,0,0,0,2,40,1,161,1,506.39592260000063,,506.38045329996385,506.39592260000063,507.3926739000017,507.3926739000017,507.3926739000017,507.3926739000017,507.3926739000017,508.39174099999946,508.39174099999946,509.54209359997185,z,0,1.1454928999883123,None,293371,001,2024-10-16_15h55.48.869,4.0 Motor Sequence Learning,2024.1.5,None,2024-10-16 15h55.58.497276 +0530,
50,c,0,0,0,2,40,2,162,2,509.5600353999762,,509.54388060001656,509.5600353999762,510.5428488999605,510.5428488999605,510.5428488999605,510.5428488999605,510.55647439998575,511.55541669996455,511.55541669996455,513.8723786000046,c,1,2.2995706999790855,None,293371,001,2024-10-16_15h55.48.869,4.0 Motor Sequence Learning,2024.1.5,None,2024-10-16 15h55.58.497276 +0530,
-150,z,0,0,0,2,40,3,163,3,513.8900050999946,,513.8743923999718,513.8900050999946,514.8863043999881,514.8863043999881,514.8863043999881,514.8863043999881,514.8863043999881,515.8855729000061,515.8855729000061,516.2200412999955,x,0,0.32583460002206266,None,293371,001,2024-10-16_15h55.48.869,4.0 Motor Sequence Learning,2024.1.5,None,2024-10-16 15h55.58.497276 +0530,
-50,x,0,0,0,2,41,0,164,0,516.2381696999655,,516.2225795999984,516.2381696999655,517.2345729999943,517.2345729999943,517.2345729999943,517.2345729999943,517.2345729999943,518.2334942999878,518.2334942999878,518.8345975999837,v,0,0.5910525000072084,None,293371,001,2024-10-16_15h55.48.869,4.0 Motor Sequence Learning,2024.1.5,None,2024-10-16 15h55.58.497276 +0530,
150,v,0,0,0,2,41,1,165,1,518.8519591999939,,518.8369837999926,518.8519591999939,519.8353910999722,519.8353910999722,519.8353910999722,519.8353910999722,519.8486421999987,520.8479198999703,520.8479198999703,522.1318712999928,z,0,1.2739590000128374,None,293371,001,2024-10-16_15h55.48.869,4.0 Motor Sequence Learning,2024.1.5,None,2024-10-16 15h55.58.497276 +0530,
50,c,0,0,0,2,41,2,166,2,522.1493314999971,,522.133880999987,522.1493314999971,523.1324819999863,523.1324819999863,523.1324819999863,523.1324819999863,523.1459371999954,524.1453121000086,524.1453121000086,524.6459700000123,c,1,0.48610189999453723,None,293371,001,2024-10-16_15h55.48.869,4.0 Motor Sequence Learning,2024.1.5,None,2024-10-16 15h55.58.497276 +0530,
-150,z,0,0,0,2,41,3,167,3,524.6641190999653,,524.6482732999721,524.6641190999653,525.6466851999867,525.6466851999867,525.6466851999867,525.6466851999867,525.660857299983,526.6598636999843,526.6598636999843,528.6267715999857,x,0,1.964742100040894,None,293371,001,2024-10-16_15h55.48.869,4.0 Motor Sequence Learning,2024.1.5,None,2024-10-16 15h55.58.497276 +0530,
-50,x,0,0,0,2,42,0,168,0,528.6442603999749,,528.6286401000107,528.6442603999749,529.6273483000114,529.6273483000114,529.6273483000114,529.6273483000114,529.6405782999936,530.6398572999751,530.6398572999751,532.6902541000163,v,0,2.0484950999962166,None,293371,001,2024-10-16_15h55.48.869,4.0 Motor Sequence Learning,2024.1.5,None,2024-10-16 15h55.58.497276 +0530,
150,v,0,0,0,2,42,1,169,1,532.7075869999826,,532.6922831999836,532.7075869999826,533.6901462000096,533.6901462000096,533.6901462000096,533.6901462000096,533.7043265000102,534.7035023999633,534.7035023999633,536.1541044999612,z,0,1.442348500015214,None,293371,001,2024-10-16_15h55.48.869,4.0 Motor Sequence Learning,2024.1.5,None,2024-10-16 15h55.58.497276 +0530,
50,c,0,0,0,2,42,2,170,2,536.1716048999806,,536.1561266999925,536.1716048999806,537.1679793999647,537.1679793999647,537.1679793999647,537.1679793999647,537.1679793999647,538.167240299983,538.167240299983,538.6849120999686,c,1,0.5140832000179216,None,293371,001,2024-10-16_15h55.48.869,4.0 Motor Sequence Learning,2024.1.5,None,2024-10-16 15h55.58.497276 +0530,
-150,z,0,0,0,2,42,3,171,3,538.7029067999683,,538.6866641999804,538.7029067999683,539.6853099999717,539.6853099999717,539.6853099999717,539.6853099999717,539.6993680999731,540.6984630000079,540.6984630000079,542.5318076999974,x,0,1.8289022999815643,None,293371,001,2024-10-16_15h55.48.869,4.0 Motor Sequence Learning,2024.1.5,None,2024-10-16 15h55.58.497276 +0530,
-50,x,0,0,0,2,43,0,172,0,542.5494439000031,,542.5336768999696,542.5494439000031,543.5321599000017,543.5321599000017,543.5321599000017,543.5321599000017,543.5461407999974,544.5452109999605,544.5452109999605,545.313193399983,v,0,0.7650085000204854,None,293371,001,2024-10-16_15h55.48.869,4.0 Motor Sequence Learning,2024.1.5,None,2024-10-16 15h55.58.497276 +0530,
150,v,0,0,0,2,43,1,173,1,545.3301382999634,,545.3150371999945,545.3301382999634,546.3136292999843,546.3136292999843,546.3136292999843,546.3136292999843,546.3269686999847,547.3261890999856,547.3261890999856,548.5438388999901,z,0,1.202171900018584,None,293371,001,2024-10-16_15h55.48.869,4.0 Motor Sequence Learning,2024.1.5,None,2024-10-16 15h55.58.497276 +0530,
50,c,0,0,0,2,43,2,174,2,548.5616185999825,,548.5461365999654,548.5616185999825,549.5580416999874,549.5580416999874,549.5580416999874,549.5580416999874,549.5580416999874,550.5570012999815,550.5570012999815,551.4585433999891,c,1,0.8994849000009708,None,293371,001,2024-10-16_15h55.48.869,4.0 Motor Sequence Learning,2024.1.5,None,2024-10-16 15h55.58.497276 +0530,
-150,z,0,0,0,2,43,3,175,3,551.47563359997,,551.4605279999669,551.47563359997,552.4720127999899,552.4720127999899,552.4720127999899,552.4720127999899,552.4720127999899,553.4711509000044,553.4711509000044,556.1870484999963,x,0,2.702806400018744,None,293371,001,2024-10-16_15h55.48.869,4.0 Motor Sequence Learning,2024.1.5,None,2024-10-16 15h55.58.497276 +0530,
-50,x,0,0,0,2,44,0,176,0,556.2046573999687,,556.1888873999706,556.2046573999687,557.1873430999694,557.1873430999694,557.1873430999694,557.1873430999694,557.2013573999866,558.2005988999736,558.2005988999736,560.250479099981,v,0,2.0362855000421405,None,293371,001,2024-10-16_15h55.48.869,4.0 Motor Sequence Learning,2024.1.5,None,2024-10-16 15h55.58.497276 +0530,
150,v,0,0,0,2,44,1,177,1,560.2681767999893,,560.2523812999716,560.2681767999893,561.251124500006,561.251124500006,561.251124500006,561.251124500006,561.2646939000115,562.2637744999956,562.2637744999956,563.530998000002,z,0,1.2530600000172853,None,293371,001,2024-10-16_15h55.48.869,4.0 Motor Sequence Learning,2024.1.5,None,2024-10-16 15h55.58.497276 +0530,
50,c,0,0,0,2,44,2,178,2,563.5493782999692,,563.5328010999947,563.5493782999692,564.5316862000036,564.5316862000036,564.5316862000036,564.5316862000036,564.5619448999641,565.5446914999629,565.5446914999629,567.3111111999606,c,1,1.754153799964115,None,293371,001,2024-10-16_15h55.48.869,4.0 Motor Sequence Learning,2024.1.5,None,2024-10-16 15h55.58.497276 +0530,
-150,z,0,0,0,2,44,3,179,3,567.328899599961,,567.3129924999666,567.328899599961,568.3116317999666,568.3116317999666,568.3116317999666,568.3116317999666,568.325808900001,569.324915300007,569.324915300007,569.7425389999989,x,0,0.4154289000434801,None,293371,001,2024-10-16_15h55.48.869,4.0 Motor Sequence Learning,2024.1.5,None,2024-10-16 15h55.58.497276 +0530,
-50,x,0,0,0,2,45,0,180,0,569.7604398999829,,569.7440563999698,569.7604398999829,570.7431630999781,570.7431630999781,570.7431630999781,570.7431630999781,570.7569282999611,571.7561262999661,571.7561262999661,572.5565446999972,v,0,0.7884915999602526,None,293371,001,2024-10-16_15h55.48.869,4.0 Motor Sequence Learning,2024.1.5,None,2024-10-16 15h55.58.497276 +0530,
150,v,0,0,0,2,45,1,181,1,572.5748627000139,,572.5583570000017,572.5748627000139,573.557447500003,573.557447500003,573.557447500003,573.557447500003,573.5716841999674,574.570697499963,574.570697499963,575.6379729000037,z,0,1.0521664000116289,None,293371,001,2024-10-16_15h55.48.869,4.0 Motor Sequence Learning,2024.1.5,None,2024-10-16 15h55.58.497276 +0530,
50,c,0,0,0,2,45,2,182,2,575.6557339999708,,575.6398542000097,575.6557339999708,576.6383739999728,576.6383739999728,576.6383739999728,576.6383739999728,576.6519800999667,577.6512693999684,577.6512693999684,580.2179078999907,c,1,2.5610471999971196,None,293371,001,2024-10-16_15h55.48.869,4.0 Motor Sequence Learning,2024.1.5,None,2024-10-16 15h55.58.497276 +0530,
-150,z,0,0,0,2,45,3,183,3,580.2356732999906,,580.219678799971,580.2356732999906,581.2317678999971,581.2317678999971,581.2317678999971,581.2317678999971,581.2317678999971,582.2311279000132,582.2311279000132,583.6647244999767,x,0,1.43100380001124,None,293371,001,2024-10-16_15h55.48.869,4.0 Motor Sequence Learning,2024.1.5,None,2024-10-16 15h55.58.497276 +0530,
-50,x,0,0,0,2,46,0,184,0,583.6822380999802,,583.6665877999621,583.6822380999802,584.6788734999718,584.6788734999718,584.6788734999718,584.6788734999718,584.6788734999718,585.6782097999821,585.6782097999821,587.2945973000024,v,0,1.6067765000043437,None,293371,001,2024-10-16_15h55.48.869,4.0 Motor Sequence Learning,2024.1.5,None,2024-10-16 15h55.58.497276 +0530,
150,v,0,0,0,2,46,1,185,1,587.3129260999849,,587.2963425999624,587.3129260999849,588.2951364999753,588.2951364999753,588.2951364999753,588.2951364999753,588.3261230000062,589.3084115000092,589.3084115000092,590.7585567999631,z,0,1.4410760999890044,None,293371,001,2024-10-16_15h55.48.869,4.0 Motor Sequence Learning,2024.1.5,None,2024-10-16 15h55.58.497276 +0530,
50,c,0,0,0,2,46,2,186,2,590.7766846999875,,590.760160100006,590.7766846999875,591.7592735000071,591.7592735000071,591.7592735000071,591.7592735000071,591.7730804000166,592.7721553000156,592.7721553000156,595.971078499977,c,1,3.183212200005073,None,293371,001,2024-10-16_15h55.48.869,4.0 Motor Sequence Learning,2024.1.5,None,2024-10-16 15h55.58.497276 +0530,
-150,z,0,0,0,2,46,3,187,3,595.9888204999734,,595.9729974999791,595.9888204999734,596.9716738999705,596.9716738999705,596.9716738999705,596.9716738999705,596.985468400002,597.9844675000058,597.9844675000058,600.866631300014,x,0,2.8651106999604963,None,293371,001,2024-10-16_15h55.48.869,4.0 Motor Sequence Learning,2024.1.5,None,2024-10-16 15h55.58.497276 +0530,
-50,x,0,0,0,2,47,0,188,0,600.884891099995,,600.8682395999786,600.884891099995,601.8676601999905,601.8676601999905,601.8676601999905,601.8676601999905,601.8812401999603,602.8802967999945,602.8802967999945,608.0616889999947,v,0,5.169777799979784,None,293371,001,2024-10-16_15h55.48.869,4.0 Motor Sequence Learning,2024.1.5,None,2024-10-16 15h55.58.497276 +0530,
150,v,0,0,0,2,47,1,189,1,608.0787711999728,,608.0636929000029,608.0787711999728,609.0754209000152,609.0754209000152,609.0754209000152,609.0754209000152,609.0754209000152,610.0746029000147,610.0746029000147,613.440363599977,z,0,3.3496842999593355,None,293371,001,2024-10-16_15h55.48.869,4.0 Motor Sequence Learning,2024.1.5,None,2024-10-16 15h55.58.497276 +0530,
50,c,0,0,0,2,47,2,190,2,613.4580915999832,,613.4422204999719,613.4580915999832,614.4547082000063,614.4547082000063,614.4547082000063,614.4547082000063,614.4547082000063,615.4538227000157,615.4538227000157,618.3698190000141,c,1,2.9137936999904923,None,293371,001,2024-10-16_15h55.48.869,4.0 Motor Sequence Learning,2024.1.5,None,2024-10-16 15h55.58.497276 +0530,
-150,z,0,0,0,2,47,3,191,3,618.3872990999953,,618.371721500007,618.3872990999953,619.3838140000007,619.3838140000007,619.3838140000007,619.3838140000007,619.3838140000007,620.3830048000091,620.3830048000091,621.2009530999931,x,0,0.8133749000262469,None,293371,001,2024-10-16_15h55.48.869,4.0 Motor Sequence Learning,2024.1.5,None,2024-10-16 15h55.58.497276 +0530,
-50,x,0,0,0,2,48,0,192,0,621.2180220999871,,621.2028090999811,621.2180220999871,622.2146611000062,622.2146611000062,622.2146611000062,622.2146611000062,622.2146611000062,623.2138639999903,623.2138639999903,623.6813375999918,v,0,0.46002899995073676,None,293371,001,2024-10-16_15h55.48.869,4.0 Motor Sequence Learning,2024.1.5,None,2024-10-16 15h55.58.497276 +0530,
150,v,0,0,0,2,48,1,193,1,623.6992212999612,,623.6830398999737,623.6992212999612,624.6823594999732,624.6823594999732,624.6823594999732,624.6823594999732,624.6961275999784,625.6953937999788,625.6953937999788,626.8956593999756,z,0,1.1901951000327244,None,293371,001,2024-10-16_15h55.48.869,4.0 Motor Sequence Learning,2024.1.5,None,2024-10-16 15h55.58.497276 +0530,
50,c,0,0,0,2,48,2,194,2,626.9135206000064,,626.8975957999937,626.9135206000064,627.8963433000026,627.8963433000026,627.8963433000026,627.8963433000026,627.9098368000123,628.909099099983,628.909099099983,629.54366939998,c,1,0.6270695999846794,None,293371,001,2024-10-16_15h55.48.869,4.0 Motor Sequence Learning,2024.1.5,None,2024-10-16 15h55.58.497276 +0530,
-150,z,0,0,0,2,48,3,195,3,629.5613944999641,,629.5454559999635,629.5613944999641,630.5441665999824,630.5441665999824,630.5441665999824,630.5441665999824,630.5577257999685,631.5569693999714,631.5569693999714,632.4411875999649,x,0,0.8666971999919042,None,293371,001,2024-10-16_15h55.48.869,4.0 Motor Sequence Learning,2024.1.5,None,2024-10-16 15h55.58.497276 +0530,
-50,x,0,0,0,2,49,0,196,0,632.4591845999821,,632.443064799998,632.4591845999821,633.4417722999933,633.4417722999933,633.4417722999933,633.4417722999933,633.4552646999946,634.4544121999643,634.4544121999643,634.8055549999699,v,0,0.33832019998226315,None,293371,001,2024-10-16_15h55.48.869,4.0 Motor Sequence Learning,2024.1.5,None,2024-10-16 15h55.58.497276 +0530,
150,v,0,0,0,2,49,1,197,1,634.8239618999651,,634.8074874000158,634.8239618999651,635.80615389999,635.80615389999,635.80615389999,635.80615389999,635.8370129999821,636.8194870000007,636.8194870000007,637.1207295999629,z,0,0.29118559998460114,None,293371,001,2024-10-16_15h55.48.869,4.0 Motor Sequence Learning,2024.1.5,None,2024-10-16 15h55.58.497276 +0530,
50,c,0,0,0,2,49,2,198,2,637.1381829999737,,637.1226009000093,637.1381829999737,638.1211202999693,638.1211202999693,638.1211202999693,638.1211202999693,638.1350168999634,639.1340228999616,639.1340228999616,639.4187901999685,c,1,0.27216090000001714,None,293371,001,2024-10-16_15h55.48.869,4.0 Motor Sequence Learning,2024.1.5,None,2024-10-16 15h55.58.497276 +0530,
-150,z,0,0,0,2,49,3,199,3,639.4362764999969,,639.4207136000041,639.4362764999969,640.4191958999727,640.4191958999727,640.4191958999727,640.4191958999727,640.4331208000076,641.4323679999798,641.4323679999798,641.7667832999723,x,0,0.32417649996932596,None,293371,001,2024-10-16_15h55.48.869,4.0 Motor Sequence Learning,2024.1.5,None,2024-10-16 15h55.58.497276 +0530,
50,c,0,0,0,2,,,,,,,,,,,,,,,,,,,,,293371,001,2024-10-16_15h55.48.869,4.0 Motor Sequence Learning,2024.1.5,None,2024-10-16 15h55.58.497276 +0530,
-50,x,0,1,1,3,0,0,0,0,641.7847144000116,,641.7754156999872,641.7847144000116,642.7673794999719,642.7673794999719,642.7673794999719,642.7673794999719,642.781196099997,643.7804581999662,643.7804581999662,643.998141899996,v,0,0.21420589997433126,None,293371,001,2024-10-16_15h55.48.869,4.0 Motor Sequence Learning,2024.1.5,None,2024-10-16 15h55.58.497276 +0530,
150,v,0,1,1,3,0,1,1,1,644.0158489999594,,644.0007215999649,644.0158489999594,645.0127153999638,645.0127153999638,645.0127153999638,645.0127153999638,645.0127153999638,646.0118692999822,646.0118692999822,646.0967302999925,z,0,0.0821968000382185,None,293371,001,2024-10-16_15h55.48.869,4.0 Motor Sequence Learning,2024.1.5,None,2024-10-16 15h55.58.497276 +0530,
50,c,0,1,1,3,0,2,2,2,646.1144674000097,,646.0985804999946,646.1144674000097,647.0968624000088,647.0968624000088,647.0968624000088,647.0968624000088,647.1109689999721,648.1101965999696,648.1101965999696,648.3443927000044,c,1,0.21823120000772178,None,293371,001,2024-10-16_15h55.48.869,4.0 Motor Sequence Learning,2024.1.5,None,2024-10-16 15h55.58.497276 +0530,
-150,z,0,1,1,3,0,3,3,3,648.3625936000026,,648.3464660999598,648.3625936000026,649.3451583000133,649.3451583000133,649.3451583000133,649.3451583000133,649.3591284999857,650.3583073999616,650.3583073999616,650.5763228000142,x,0,0.20783669996308163,None,293371,001,2024-10-16_15h55.48.869,4.0 Motor Sequence Learning,2024.1.5,None,2024-10-16 15h55.58.497276 +0530,
-50,x,0,1,1,3,1,0,4,0,650.5939404999954,,650.5781387999887,650.5939404999954,651.5768319999916,651.5768319999916,651.5768319999916,651.5768319999916,651.590340900002,652.5897442999994,652.5897442999994,652.9243191999849,v,0,0.32528410002123564,None,293371,001,2024-10-16_15h55.48.869,4.0 Motor Sequence Learning,2024.1.5,None,2024-10-16 15h55.58.497276 +0530,
150,v,0,1,1,3,1,1,5,1,652.9416475999751,,652.9262235999922,652.9416475999751,653.9249415000086,653.9249415000086,653.9249415000086,653.9249415000086,653.9385351999663,654.937610199966,654.937610199966,655.1723920999793,z,0,0.22620140004437417,None,293371,001,2024-10-16_15h55.48.869,4.0 Motor Sequence Learning,2024.1.5,None,2024-10-16 15h55.58.497276 +0530,
50,c,0,1,1,3,1,2,6,2,655.1901403999655,,655.174128899991,655.1901403999655,656.1727854000055,656.1727854000055,656.1727854000055,656.1727854000055,656.1863875999697,657.1858075999771,657.1858075999771,658.2030407999991,c,1,1.0024097000132315,None,293371,001,2024-10-16_15h55.48.869,4.0 Motor Sequence Learning,2024.1.5,None,2024-10-16 15h55.58.497276 +0530,
-150,z,0,1,1,3,1,3,7,3,658.2210410999833,,658.2049545999616,658.2210410999833,659.2039377999608,659.2039377999608,659.2039377999608,659.2039377999608,659.2177007999853,660.2168596999836,660.2168596999836,660.2348498000065,x,0,0.013951300003100187,None,293371,001,2024-10-16_15h55.48.869,4.0 Motor Sequence Learning,2024.1.5,None,2024-10-16 15h55.58.497276 +0530,
-50,x,0,1,1,3,2,0,8,0,660.2526318999589,,660.2370935999788,660.2526318999589,661.2353140999912,661.2353140999912,661.2353140999912,661.2353140999912,661.2494148999685,662.2485327000031,662.2485327000031,662.5330983999884,v,0,0.2771773000131361,None,293371,001,2024-10-16_15h55.48.869,4.0 Motor Sequence Learning,2024.1.5,None,2024-10-16 15h55.58.497276 +0530,
150,v,0,1,1,3,2,1,9,1,662.5511946000042,,662.5350871999981,662.5511946000042,663.5333595999982,663.5333595999982,663.5333595999982,663.5333595999982,663.5640628999681,664.54678959999,664.54678959999,664.8147995999898,z,0,0.2644356000237167,None,293371,001,2024-10-16_15h55.48.869,4.0 Motor Sequence Learning,2024.1.5,None,2024-10-16 15h55.58.497276 +0530,
50,c,0,1,1,3,2,2,10,2,664.8322561999667,,664.8167963000014,664.8322561999667,665.8288699999684,665.8288699999684,665.8288699999684,665.8288699999684,665.8288699999684,666.8278705999837,666.8278705999837,667.1297575999633,c,1,0.29525500000454485,None,293371,001,2024-10-16_15h55.48.869,4.0 Motor Sequence Learning,2024.1.5,None,2024-10-16 15h55.58.497276 +0530,
-150,z,0,1,1,3,2,3,11,3,667.1472631999641,,667.131922999979,667.1472631999641,668.1438064000104,668.1438064000104,668.1438064000104,668.1438064000104,668.1438064000104,669.1430499000126,669.1430499000126,669.4108372000046,x,0,0.26242019998608157,None,293371,001,2024-10-16_15h55.48.869,4.0 Motor Sequence Learning,2024.1.5,None,2024-10-16 15h55.58.497276 +0530,
-50,x,0,1,1,3,3,0,12,0,669.4286263000104,,669.4124757999671,669.4286263000104,670.4114501000149,670.4114501000149,670.4114501000149,670.4114501000149,670.424984799989,671.4242756000021,671.4242756000021,671.4587772999657,v,0,0.02344209997681901,None,293371,001,2024-10-16_15h55.48.869,4.0 Motor Sequence Learning,2024.1.5,None,2024-10-16 15h55.58.497276 +0530,
150,v,0,1,1,3,3,1,13,1,671.4767122999765,,671.4605467999936,671.4767122999765,672.4595699000056,672.4595699000056,672.4595699000056,672.4595699000056,672.4731245000148,673.472294999985,673.472294999985,673.7405012999661,z,0,0.252249600016512,None,293371,001,2024-10-16_15h55.48.869,4.0 Motor Sequence Learning,2024.1.5,None,2024-10-16 15h55.58.497276 +0530,
50,c,0,1,1,3,3,2,14,2,673.7583884999622,,673.7422885000124,673.7583884999622,674.7410644000047,674.7410644000047,674.7410644000047,674.7410644000047,674.7549395000096,675.7541395999724,675.7541395999724,676.0220910999924,c,1,0.25325360003625974,None,293371,001,2024-10-16_15h55.48.869,4.0 Motor Sequence Learning,2024.1.5,None,2024-10-16 15h55.58.497276 +0530,
-150,z,0,1,1,3,3,3,15,3,676.0401373999775,,676.0240671999636,676.0401373999775,677.0222744999919,677.0222744999919,677.0222744999919,677.0222744999919,677.0531220000121,678.0356668999884,678.0356668999884,678.3034583000117,x,0,0.2553222000133246,None,293371,001,2024-10-16_15h55.48.869,4.0 Motor Sequence Learning,2024.1.5,None,2024-10-16 15h55.58.497276 +0530,
-50,x,0,1,1,3,4,0,16,0,678.3213842000114,,678.3053335999721,678.3213842000114,679.3040306000039,679.3040306000039,679.3040306000039,679.3040306000039,679.3176695000147,680.3167192999972,680.3167192999972,680.38579879998,v,0,0.06713859998853877,None,293371,001,2024-10-16_15h55.48.869,4.0 Motor Sequence Learning,2024.1.5,None,2024-10-16 15h55.58.497276 +0530,
150,v,0,1,1,3,4,1,17,1,680.4031097000116,,680.387963599991,680.4031097000116,681.3994395000045,681.3994395000045,681.3994395000045,681.3994395000045,681.3994395000045,682.3985753000015,682.3985753000015,682.666203700006,z,0,0.25143370003206655,None,293371,001,2024-10-16_15h55.48.869,4.0 Motor Sequence Learning,2024.1.5,None,2024-10-16 15h55.58.497276 +0530,
50,c,0,1,1,3,4,2,18,2,682.6846608999767,,682.6680226000026,682.6846608999767,683.666822500003,683.666822500003,683.666822500003,683.666822500003,683.6977287000045,684.6801457999973,684.6801457999973,684.7479951999849,c,1,0.06205100001534447,None,293371,001,2024-10-16_15h55.48.869,4.0 Motor Sequence Learning,2024.1.5,None,2024-10-16 15h55.58.497276 +0530,
-150,z,0,1,1,3,4,3,19,3,684.7658799999626,,684.7493312999723,684.7658799999626,685.7487530999933,685.7487530999933,685.7487530999933,685.7487530999933,685.7624548999593,686.7615043999976,686.7615043999976,687.0297886999906,x,0,0.2533729999559,None,293371,001,2024-10-16_15h55.48.869,4.0 Motor Sequence Learning,2024.1.5,None,2024-10-16 15h55.58.497276 +0530,
-50,x,0,1,1,3,5,0,20,0,687.0476264999597,,687.0316533999867,687.0476264999597,688.0301245999872,688.0301245999872,688.0301245999872,688.0301245999872,688.0440769999987,689.0431232000119,689.0431232000119,689.3442289999803,v,0,0.2956994000123814,None,293371,001,2024-10-16_15h55.48.869,4.0 Motor Sequence Learning,2024.1.5,None,2024-10-16 15h55.58.497276 +0530,
150,v,0,1,1,3,5,1,21,1,689.3622434000135,,689.3460619999678,689.3622434000135,690.3451241999865,690.3451241999865,690.3451241999865,690.3451241999865,690.3585620999802,691.3578433999792,691.3578433999792,691.60920050001,z,0,0.24868070002412423,None,293371,001,2024-10-16_15h55.48.869,4.0 Motor Sequence Learning,2024.1.5,None,2024-10-16 15h55.58.497276 +0530,
50,c,0,1,1,3,5,2,22,2,691.6272381999879,,691.6112654999597,691.6272381999879,692.6095181999844,692.6095181999844,692.6095181999844,692.6095181999844,692.6404407999944,693.6227334999712,693.6227334999712,694.0078930999734,c,1,0.3719571999972686,None,293371,001,2024-10-16_15h55.48.869,4.0 Motor Sequence Learning,2024.1.5,None,2024-10-16 15h55.58.497276 +0530,
-150,z,0,1,1,3,5,3,23,3,694.0259298000019,,694.0102156999637,694.0259298000019,695.0244900999824,695.0244900999824,695.0244900999824,695.0244900999824,695.0383905000053,696.0207053999766,696.0207053999766,696.2724779999699,x,0,0.2492433000006713,None,293371,001,2024-10-16_15h55.48.869,4.0 Motor Sequence Learning,2024.1.5,None,2024-10-16 15h55.58.497276 +0530,
-50,x,0,1,1,3,6,0,24,0,696.28961659997,,696.2743667999748,696.28961659997,697.2863850999856,697.2863850999856,697.2863850999856,697.2863850999856,697.2863850999856,698.2856063999934,698.2856063999934,698.5363893999602,v,0,0.23734920000424609,None,293371,001,2024-10-16_15h55.48.869,4.0 Motor Sequence Learning,2024.1.5,None,2024-10-16 15h55.58.497276 +0530,
150,v,0,1,1,3,6,1,25,1,698.5546091999859,,698.537895699963,698.5546091999859,699.5373882999993,699.5373882999993,699.5373882999993,699.5373882999993,699.5511655000155,700.5501909999875,700.5501909999875,700.8179781999788,z,0,0.253744599991478,None,293371,001,2024-10-16_15h55.48.869,4.0 Motor Sequence Learning,2024.1.5,None,2024-10-16 15h55.58.497276 +0530,
50,c,0,1,1,3,6,2,26,2,700.8358606999973,,700.8202931999695,700.8358606999973,701.8190874999855,701.8190874999855,701.8190874999855,701.8190874999855,701.8328205000143,702.8317671999685,702.8317671999685,703.1333435999695,c,1,0.29545199999120086,None,293371,001,2024-10-16_15h55.48.869,4.0 Motor Sequence Learning,2024.1.5,None,2024-10-16 15h55.58.497276 +0530,
-150,z,0,1,1,3,6,3,27,3,703.1504967999645,,703.1354151999694,703.1504967999645,704.1473043999868,704.1473043999868,704.1473043999868,704.1473043999868,704.1473043999868,705.1464070999646,705.1464070999646,706.4971082999837,x,0,1.3377824000199325,None,293371,001,2024-10-16_15h55.48.869,4.0 Motor Sequence Learning,2024.1.5,None,2024-10-16 15h55.58.497276 +0530,
-50,x,0,1,1,3,7,0,28,0,706.5151326999767,,706.4993131000083,706.5151326999767,707.5141616999754,707.5141616999754,707.5141616999754,707.5141616999754,707.5281200999743,708.5104471999803,708.5104471999803,711.2426958999713,v,0,2.7211125000030734,None,293371,001,2024-10-16_15h55.48.869,4.0 Motor Sequence Learning,2024.1.5,None,2024-10-16 15h55.58.497276 +0530,
150,v,0,1,1,3,7,1,29,1,711.2609209999791,,711.2444487999892,711.2609209999791,712.2435917999828,712.2435917999828,712.2435917999828,712.2435917999828,712.2575669999933,713.2567205000087,713.2567205000087,714.8896054999786,z,0,1.629389000008814,None,293371,001,2024-10-16_15h55.48.869,4.0 Motor Sequence Learning,2024.1.5,None,2024-10-16 15h55.58.497276 +0530,
50,c,0,1,1,3,7,2,30,2,714.907783099974,,714.8914080999675,714.907783099974,715.8904049000121,715.8904049000121,715.8904049000121,715.8904049000121,715.9044081000029,716.9036017999751,716.9036017999751,719.0196321000112,c,1,2.0997785999788903,None,293371,001,2024-10-16_15h55.48.869,4.0 Motor Sequence Learning,2024.1.5,None,2024-10-16 15h55.58.497276 +0530,
-150,z,0,1,1,3,7,3,31,3,719.0375919999788,,719.0213979000109,719.0375919999788,720.0204525999725,720.0204525999725,720.0204525999725,720.0204525999725,720.0342838999932,721.0333511999925,721.0333511999925,724.6316321999766,x,0,3.5890136000234634,None,293371,001,2024-10-16_15h55.48.869,4.0 Motor Sequence Learning,2024.1.5,None,2024-10-16 15h55.58.497276 +0530,
-50,x,0,1,1,3,8,0,32,0,724.6496657999814,,724.6338986000046,724.6496657999814,725.6323307999992,725.6323307999992,725.6323307999992,725.6323307999992,725.646427700005,726.6456763999886,726.6456763999886,728.8783568000072,v,0,2.22796260000905,None,293371,001,2024-10-16_15h55.48.869,4.0 Motor Sequence Learning,2024.1.5,None,2024-10-16 15h55.58.497276 +0530,
150,v,0,1,1,3,8,1,33,1,728.8966242999886,,728.8800851000124,728.8966242999886,729.8788724999758,729.8788724999758,729.8788724999758,729.8788724999758,729.9095199999865,730.8921006000019,730.8921006000019,733.3584479999845,z,0,2.454376299981959,None,293371,001,2024-10-16_15h55.48.869,4.0 Motor Sequence Learning,2024.1.5,None,2024-10-16 15h55.58.497276 +0530,
50,c,0,1,1,3,8,2,34,2,733.3758969999617,,733.3603192999726,733.3758969999617,734.3588037000154,734.3588037000154,734.3588037000154,734.3588037000154,734.3724258000148,735.3716355999932,735.3716355999932,737.3048697999911,c,1,1.9276858000084758,None,293371,001,2024-10-16_15h55.48.869,4.0 Motor Sequence Learning,2024.1.5,None,2024-10-16 15h55.58.497276 +0530,
-150,z,0,1,1,3,8,3,35,3,737.3228489999892,,737.3065105999704,737.3228489999892,738.3059392999858,738.3059392999858,738.3059392999858,738.3059392999858,738.3191252999823,739.3183142999769,739.3183142999769,740.7356385000166,x,0,1.4020276000373997,None,293371,001,2024-10-16_15h55.48.869,4.0 Motor Sequence Learning,2024.1.5,None,2024-10-16 15h55.58.497276 +0530,
-50,x,0,1,1,3,9,0,36,0,740.7531161999796,,740.7380093999673,740.7531161999796,741.7500246000127,741.7500246000127,741.7500246000127,741.7500246000127,741.7500246000127,742.7491636999766,742.7491636999766,744.365297899989,v,0,1.6053523999871686,None,293371,001,2024-10-16_15h55.48.869,4.0 Motor Sequence Learning,2024.1.5,None,2024-10-16 15h55.58.497276 +0530,
150,v,0,1,1,3,9,1,37,1,744.3834416999598,,744.3671777999843,744.3834416999598,745.3663093000068,745.3663093000068,745.3663093000068,745.3663093000068,745.3801895999932,746.3794346000068,746.3794346000068,747.7298611999722,z,0,1.3412905999575742,None,293371,001,2024-10-16_15h55.48.869,4.0 Motor Sequence Learning,2024.1.5,None,2024-10-16 15h55.58.497276 +0530,
50,c,0,1,1,3,9,2,38,2,747.7477580999839,,747.7316916999989,747.7477580999839,748.7440989000024,748.7440989000024,748.7440989000024,748.7440989000024,748.7440989000024,749.7432868999895,749.7432868999895,751.5595924999798,c,1,1.8075007000006735,None,293371,001,2024-10-16_15h55.48.869,4.0 Motor Sequence Learning,2024.1.5,None,2024-10-16 15h55.58.497276 +0530,
-150,z,0,1,1,3,9,3,39,3,751.5779028999968,,751.5617574999924,751.5779028999968,752.5597763999831,752.5597763999831,752.5597763999831,752.5597763999831,752.5909518999979,753.5732899999712,753.5732899999712,754.5243744999752,x,0,0.94149210001342,None,293371,001,2024-10-16_15h55.48.869,4.0 Motor Sequence Learning,2024.1.5,None,2024-10-16 15h55.58.497276 +0530,
-50,x,0,1,1,3,10,0,40,0,754.5420142000075,,754.5263021999854,754.5420142000075,755.5386462999741,755.5386462999741,755.5386462999741,755.5386462999741,755.5386462999741,756.5377184000099,756.5377184000099,756.8552679999848,v,0,0.3004876000341028,None,293371,001,2024-10-16_15h55.48.869,4.0 Motor Sequence Learning,2024.1.5,None,2024-10-16 15h55.58.497276 +0530,
150,v,0,1,1,3,10,1,41,1,756.8731288000126,,756.8572805000003,756.8731288000126,757.8563262000098,757.8563262000098,757.8563262000098,757.8563262000098,757.8699147999869,758.869145500008,758.869145500008,759.6534890999901,z,0,0.7816469999961555,None,293371,001,2024-10-16_15h55.48.869,4.0 Motor Sequence Learning,2024.1.5,None,2024-10-16 15h55.58.497276 +0530,
50,c,0,1,1,3,10,2,42,2,759.6708081999677,,759.6552822999656,759.6708081999677,760.6535049999948,760.6535049999948,760.6535049999948,760.6535049999948,760.6678053999785,761.666917399969,761.666917399969,761.951381299994,c,1,0.27810380002483726,None,293371,001,2024-10-16_15h55.48.869,4.0 Motor Sequence Learning,2024.1.5,None,2024-10-16 15h55.58.497276 +0530,
-150,z,0,1,1,3,10,3,43,3,761.9694860000163,,761.9529944999958,761.9694860000163,762.9519345000153,762.9519345000153,762.9519345000153,762.9519345000153,762.9657529999968,763.9650873999926,763.9650873999926,764.2835922999657,x,0,0.31648720003431663,None,293371,001,2024-10-16_15h55.48.869,4.0 Motor Sequence Learning,2024.1.5,None,2024-10-16 15h55.58.497276 +0530,
-50,x,0,1,1,3,11,0,44,0,764.300078100001,,764.2853339000139,764.300078100001,765.2971707999823,765.2971707999823,765.2971707999823,765.2971707999823,765.2971707999823,766.2961970999604,766.2961970999604,766.6308236999903,v,0,0.3291503000073135,None,293371,001,2024-10-16_15h55.48.869,4.0 Motor Sequence Learning,2024.1.5,None,2024-10-16 15h55.58.497276 +0530,
150,v,0,1,1,3,11,1,45,1,766.6486336999806,,766.6327013999689,766.6486336999806,767.6316005999688,767.6316005999688,767.6316005999688,767.6316005999688,767.6450374000124,768.6440103999921,768.6440103999921,769.2786563999834,z,0,0.617648699961137,None,293371,001,2024-10-16_15h55.48.869,4.0 Motor Sequence Learning,2024.1.5,None,2024-10-16 15h55.58.497276 +0530,
50,c,0,1,1,3,11,2,46,2,769.2962783999974,,769.2806846000021,769.2962783999974,770.2791840999853,770.2791840999853,770.2791840999853,770.2791840999853,770.2928536999971,771.2920269999886,771.2920269999886,771.6102751999861,c,1,0.30941980000352487,None,293371,001,2024-10-16_15h55.48.869,4.0 Motor Sequence Learning,2024.1.5,None,2024-10-16 15h55.58.497276 +0530,
-150,z,0,1,1,3,11,3,47,3,771.6280689999694,,771.6120459999656,771.6280689999694,772.6269624999841,772.6269624999841,772.6269624999841,772.6269624999841,772.6410536000039,773.6237180999597,773.6237180999597,774.1082016999717,x,0,0.47601809998741373,None,293371,001,2024-10-16_15h55.48.869,4.0 Motor Sequence Learning,2024.1.5,None,2024-10-16 15h55.58.497276 +0530,
-50,x,0,1,1,3,12,0,48,0,774.1260476000025,,774.1103089000098,774.1260476000025,775.1086879000068,775.1086879000068,775.1086879000068,775.1086879000068,775.1225845000008,776.1214494999731,776.1214494999731,776.4393021999858,v,0,0.30636709998361766,None,293371,001,2024-10-16_15h55.48.869,4.0 Motor Sequence Learning,2024.1.5,None,2024-10-16 15h55.58.497276 +0530,
150,v,0,1,1,3,12,1,49,1,776.4575292000081,,776.4411647999659,776.4575292000081,777.4397229999886,777.4397229999886,777.4397229999886,777.4397229999886,777.4706568999682,778.452952099964,778.452952099964,778.8209306999925,z,0,0.3556253000278957,None,293371,001,2024-10-16_15h55.48.869,4.0 Motor Sequence Learning,2024.1.5,None,2024-10-16 15h55.58.497276 +0530,
50,c,0,1,1,3,12,2,50,2,778.8385600000038,,778.8228529999615,778.8385600000038,779.8213322999654,779.8213322999654,779.8213322999654,779.8213322999654,779.8350269999937,780.8342138999724,780.8342138999724,781.1696889000013,c,1,0.3323418000363745,None,293371,001,2024-10-16_15h55.48.869,4.0 Motor Sequence Learning,2024.1.5,None,2024-10-16 15h55.58.497276 +0530,
-150,z,0,1,1,3,12,3,51,3,781.186777099967,,781.1716617000056,781.186777099967,782.1832287000143,782.1832287000143,782.1832287000143,782.1832287000143,782.1832287000143,783.1822571000084,783.1822571000084,783.5833594999858,x,0,0.3884601999889128,None,293371,001,2024-10-16_15h55.48.869,4.0 Motor Sequence Learning,2024.1.5,None,2024-10-16 15h55.58.497276 +0530,
-50,x,0,1,1,3,13,0,52,0,783.6014814999653,,783.5854373999755,783.6014814999653,784.5840825999621,784.5840825999621,784.5840825999621,784.5840825999621,784.5981253999635,785.597269299964,785.597269299964,785.9153732999694,v,0,0.3164561999728903,None,293371,001,2024-10-16_15h55.48.869,4.0 Motor Sequence Learning,2024.1.5,None,2024-10-16 15h55.58.497276 +0530,
150,v,0,1,1,3,13,1,53,1,785.9328672999982,,785.9171257999842,785.9328672999982,786.9154951999662,786.9154951999662,786.9154951999662,786.9154951999662,786.9293070000131,787.9281851999694,787.9281851999694,788.096307699976,z,0,0.16260219999821857,None,293371,001,2024-10-16_15h55.48.869,4.0 Motor Sequence Learning,2024.1.5,None,2024-10-16 15h55.58.497276 +0530,
50,c,0,1,1,3,13,2,54,2,788.1145509000053,,788.098203099973,788.1145509000053,789.0970200999873,789.0970200999873,789.0970200999873,789.0970200999873,789.111076399975,790.1101302999887,790.1101302999887,790.3612204999663,c,1,0.24345879995962605,None,293371,001,2024-10-16_15h55.48.869,4.0 Motor Sequence Learning,2024.1.5,None,2024-10-16 15h55.58.497276 +0530,
-150,z,0,1,1,3,13,3,55,3,790.3787645999691,,790.3629732999834,790.3787645999691,791.3618709999719,791.3618709999719,791.3618709999719,791.3618709999719,791.37567639997,792.3746544999885,792.3746544999885,793.1752732999739,x,0,0.7913657000171952,None,293371,001,2024-10-16_15h55.48.869,4.0 Motor Sequence Learning,2024.1.5,None,2024-10-16 15h55.58.497276 +0530,
-50,x,0,1,1,3,14,0,56,0,793.1938044999843,,793.1769026999827,793.1938044999843,794.1759866999928,794.1759866999928,794.1759866999928,794.1759866999928,794.2068750999752,795.1890996000147,795.1890996000147,795.5568432,v,0,0.355850099993404,None,293371,001,2024-10-16_15h55.48.869,4.0 Motor Sequence Learning,2024.1.5,None,2024-10-16 15h55.58.497276 +0530,
150,v,0,1,1,3,14,1,57,1,795.5744940000004,,795.5587745999801,795.5744940000004,796.5575944000157,796.5575944000157,796.5575944000157,796.5575944000157,796.5709383999929,797.5704861999839,797.5704861999839,797.8886730999802,z,0,0.3074324000044726,None,293371,001,2024-10-16_15h55.48.869,4.0 Motor Sequence Learning,2024.1.5,None,2024-10-16 15h55.58.497276 +0530,
50,c,0,1,1,3,14,2,58,2,797.9066635000054,,797.89107469999,797.9066635000054,798.905706199992,798.905706199992,798.905706199992,798.905706199992,798.9193224000046,799.9020123999799,799.9020123999799,800.0869939000113,c,1,None,None,293371,001,2024-10-16_15h55.48.869,4.0 Motor Sequence Learning,2024.1.5,None,2024-10-16 15h55.58.497276 +0530,
-150,z,0,1,1,3,14,3,59,3,800.1043894999893,,800.0890397999901,800.1043894999893,801.101259899966,801.101259899966,801.101259899966,801.101259899966,801.101259899966,802.1002259000088,802.1002259000088,802.2520657000132,x,0,0.1471290999907069,None,293371,001,2024-10-16_15h55.48.869,4.0 Motor Sequence Learning,2024.1.5,None,2024-10-16 15h55.58.497276 +0530,
-50,x,0,1,1,3,15,0,60,0,802.2688954999903,,802.2537466000067,802.2688954999903,803.2659157000016,803.2659157000016,803.2659157000016,803.2659157000016,803.2659157000016,804.2647485999623,804.2647485999623,804.4162920999806,v,0,0.14551429997663945,None,293371,001,2024-10-16_15h55.48.869,4.0 Motor Sequence Learning,2024.1.5,None,2024-10-16 15h55.58.497276 +0530,
150,v,0,1,1,3,15,1,61,1,804.4342612999608,,804.4179317000089,804.4342612999608,805.4168653999805,805.4168653999805,805.4168653999805,805.4168653999805,805.431073100015,806.4300184999593,806.4300184999593,806.714921900013,z,0,0.26802209997549653,None,293371,001,2024-10-16_15h55.48.869,4.0 Motor Sequence Learning,2024.1.5,None,2024-10-16 15h55.58.497276 +0530,
50,c,0,1,1,3,15,2,62,2,806.732590199972,,806.7168478000094,806.732590199972,807.7149984000134,807.7149984000134,807.7149984000134,807.7149984000134,807.7289740999695,808.7281960999826,808.7281960999826,808.7462992999936,c,1,0.0012126999790780246,None,293371,001,2024-10-16_15h55.48.869,4.0 Motor Sequence Learning,2024.1.5,None,2024-10-16 15h55.58.497276 +0530,
-150,z,0,1,1,3,15,3,63,3,808.7640958999982,,808.748246299976,808.7640958999982,809.7468167999759,809.7468167999759,809.7468167999759,809.7468167999759,809.7604503000039,810.7596453999868,810.7596453999868,811.0608700999874,x,0,0.29770019999705255,None,293371,001,2024-10-16_15h55.48.869,4.0 Motor Sequence Learning,2024.1.5,None,2024-10-16 15h55.58.497276 +0530,
-50,x,0,1,1,3,16,0,64,0,811.0791556999902,,811.0626492999727,811.0791556999902,812.0612530999933,812.0612530999933,812.0612530999933,812.0612530999933,812.091992600006,813.07445309998,813.07445309998,813.1435350999818,v,0,0.05532590002985671,None,293371,001,2024-10-16_15h55.48.869,4.0 Motor Sequence Learning,2024.1.5,None,2024-10-16 15h55.58.497276 +0530,
150,v,0,1,1,3,16,1,65,1,813.1613216999685,,813.1453595999628,813.1613216999685,814.1597794999834,814.1597794999834,814.1597794999834,814.1597794999834,814.173784499988,815.1559985000058,815.1559985000058,815.4245816000039,z,0,0.2568683000281453,None,293371,001,2024-10-16_15h55.48.869,4.0 Motor Sequence Learning,2024.1.5,None,2024-10-16 15h55.58.497276 +0530,
50,c,0,1,1,3,16,2,66,2,815.4420406999998,,815.4267096999683,815.4420406999998,816.438079399988,816.438079399988,816.438079399988,816.438079399988,816.438079399988,817.4377428999869,817.4377428999869,818.1548676000093,c,1,0.706228099996224,None,293371,001,2024-10-16_15h55.48.869,4.0 Motor Sequence Learning,2024.1.5,None,2024-10-16 15h55.58.497276 +0530,
-150,z,0,1,1,3,16,3,67,3,818.1733115999959,,818.1567291999818,818.1733115999959,819.1556056999834,819.1556056999834,819.1556056999834,819.1556056999834,819.1862646999652,820.1689711000072,820.1689711000072,820.5530388999614,x,0,0.3736439000349492,None,293371,001,2024-10-16_15h55.48.869,4.0 Motor Sequence Learning,2024.1.5,None,2024-10-16 15h55.58.497276 +0530,
-50,x,0,1,1,3,17,0,68,0,820.5708992999862,,820.5548472999944,820.5708992999862,821.5534970000153,821.5534970000153,821.5534970000153,821.5534970000153,821.5677012999658,822.5667625999777,822.5667625999777,822.9510589999845,v,0,0.37984260002849624,None,293371,001,2024-10-16_15h55.48.869,4.0 Motor Sequence Learning,2024.1.5,None,2024-10-16 15h55.58.497276 +0530,
150,v,0,1,1,3,17,1,69,1,822.9694555000169,,822.9528182999929,822.9694555000169,823.9516996999737,823.9516996999737,823.9516996999737,823.9516996999737,823.9822411999921,824.9648300000117,824.9648300000117,825.2497149999836,z,0,0.2830942000146024,None,293371,001,2024-10-16_15h55.48.869,4.0 Motor Sequence Learning,2024.1.5,None,2024-10-16 15h55.58.497276 +0530,
50,c,0,1,1,3,17,2,70,2,825.2672353999806,,825.2515850999625,825.2672353999806,826.2637926999596,826.2637926999596,826.2637926999596,826.2637926999596,826.2637926999596,827.2628897000104,827.2628897000104,827.7140565000009,c,1,0.43842909997329116,None,293371,001,2024-10-16_15h55.48.869,4.0 Motor Sequence Learning,2024.1.5,None,2024-10-16 15h55.58.497276 +0530,
-150,z,0,1,1,3,17,3,71,3,827.7327069999883,,827.715681599977,827.7327069999883,828.7145629000152,828.7145629000152,828.7145629000152,828.7145629000152,828.7448652999592,829.7277495000162,829.7277495000162,830.0788230999606,x,0,0.3422124000499025,None,293371,001,2024-10-16_15h55.48.869,4.0 Motor Sequence Learning,2024.1.5,None,2024-10-16 15h55.58.497276 +0530,
