pos,corr_resp,trials.thisRepN,trials.thisTrialN,trials.thisN,trials.thisIndex,trials_2.thisRepN,trials_2.thisTrialN,trials_2.thisN,trials_2.thisIndex,thisRow.t,notes,trial.started,fixation.started,line1.started,line2.started,line3.started,line4.started,fixation.stopped,probe.started,key_resp.started,trial.stopped,key_resp.keys,key_resp.corr,key_resp.rt,key_resp.duration,routine_2.started,Fixation.started,Fixation.stopped,Line1.started,Line2.started,Line3.started,Line4.started,Probe.started,key_resp_2.started,routine_2.stopped,key_resp_2.keys,key_resp_2.corr,key_resp_2.rt,key_resp_2.duration,participant,session,date,expName,psychopyVersion,frameRate,expStart,
-50,x,0,0,0,0,,,,,0.014195900002960116,,0.007947799982503057,0.014195900002960116,1.0111249000183307,1.0111249000183307,1.0111249000183307,1.0111249000183307,1.0246724000317045,2.0073755999910645,2.0073755999910645,5.612800800008699,v,0,3.5875956999952905,None,,,,,,,,,,,,,,,727214,001,2024-10-16_17h50.24.138,4.0 Motor Sequence Learning,2024.1.5,None,2024-10-16 17h50.33.464475 +0530,
150,v,0,1,1,1,,,,,5.623613499978092,,5.615332800021861,5.623613499978092,6.620257100032177,6.620257100032177,6.620257100032177,6.620257100032177,6.620257100032177,7.619281799998134,7.619281799998134,9.070120299991686,z,0,1.442889700003434,None,,,,,,,,,,,,,,,727214,001,2024-10-16_17h50.24.138,4.0 Motor Sequence Learning,2024.1.5,None,2024-10-16 17h50.33.464475 +0530,
50,c,0,2,2,2,,,,,9.087703299999703,,9.071949500008486,9.087703299999703,10.086873700027354,10.086873700027354,10.086873700027354,10.086873700027354,10.100792500015814,11.083319300028961,11.083319300028961,12.300859800016042,c,1,1.214592200005427,None,,,,,,,,,,,,,,,727214,001,2024-10-16_17h50.24.138,4.0 Motor Sequence Learning,2024.1.5,None,2024-10-16 17h50.33.464475 +0530,
-150,z,0,3,3,3,,,,,12.317588000034448,,12.302664200018626,12.317588000034448,13.314690999977756,13.314690999977756,13.314690999977756,13.314690999977756,13.314690999977756,14.313691099989228,14.313691099989228,14.682221800030675,x,0,0.3598437000182457,None,,,,,,,,,,,,,,,727214,001,2024-10-16_17h50.24.138,4.0 Motor Sequence Learning,2024.1.5,None,2024-10-16 17h50.33.464475 +0530,
-50,x,1,0,4,0,,,,,14.699630399991293,,14.684719100012444,14.699630399991293,15.696170900017023,15.696170900017023,15.696170900017023,15.696170900017023,15.696170900017023,16.69536790001439,16.69536790001439,18.845519200025592,v,0,2.1362204999895766,None,,,,,,,,,,,,,,,727214,001,2024-10-16_17h50.24.138,4.0 Motor Sequence Learning,2024.1.5,None,2024-10-16 17h50.33.464475 +0530,
150,v,1,1,5,1,,,,,18.862666000030003,,18.84780679998221,18.862666000030003,19.859417100029532,19.859417100029532,19.859417100029532,19.859417100029532,19.859417100029532,20.858562399982475,20.858562399982475,21.542687500012107,z,0,0.6727890999754891,None,,,,,,,,,,,,,,,727214,001,2024-10-16_17h50.24.138,4.0 Motor Sequence Learning,2024.1.5,None,2024-10-16 17h50.33.464475 +0530,
50,c,1,2,6,2,,,,,21.560319299984258,,21.544654300028924,21.560319299984258,22.543370400031563,22.543370400031563,22.543370400031563,22.543370400031563,22.557081100007053,23.55622070003301,23.55622070003301,24.506700800033286,c,1,0.937946500023827,None,,,,,,,,,,,,,,,727214,001,2024-10-16_17h50.24.138,4.0 Motor Sequence Learning,2024.1.5,None,2024-10-16 17h50.33.464475 +0530,
-150,z,1,3,7,3,,,,,24.524448000011034,,24.50869089999469,24.524448000011034,25.507196100021247,25.507196100021247,25.507196100021247,25.507196100021247,25.521519500005525,26.52050570002757,26.52050570002757,27.321127499977592,x,0,0.7892437999835238,None,,,,,,,,,,,,,,,727214,001,2024-10-16_17h50.24.138,4.0 Motor Sequence Learning,2024.1.5,None,2024-10-16 17h50.33.464475 +0530,
-50,x,2,0,8,0,,,,,27.33880389999831,,27.322829800017644,27.33880389999831,28.321811700006947,28.321811700006947,28.321811700006947,28.321811700006947,28.33606330002658,29.33510650001699,29.33510650001699,29.669792799977586,v,0,0.32898990000830963,None,,,,,,,,,,,,,,,727214,001,2024-10-16_17h50.24.138,4.0 Motor Sequence Learning,2024.1.5,None,2024-10-16 17h50.33.464475 +0530,
150,v,2,1,9,1,,,,,29.687207799986936,,29.671503100020345,29.687207799986936,30.68405929999426,30.68405929999426,30.68405929999426,30.68405929999426,30.68405929999426,31.68306329997722,31.68306329997722,32.01740680000512,z,0,0.3223291999893263,None,,,,,,,,,,,,,,,727214,001,2024-10-16_17h50.24.138,4.0 Motor Sequence Learning,2024.1.5,None,2024-10-16 17h50.33.464475 +0530,
50,c,2,2,10,2,,,,,32.03505599999335,,32.01953520003008,32.03505599999335,33.017951200017706,33.017951200017706,33.017951200017706,33.017951200017706,33.03206420002971,34.03131619998021,34.03131619998021,34.24928180000279,c,1,0.21268090000376105,None,,,,,,,,,,,,,,,727214,001,2024-10-16_17h50.24.138,4.0 Motor Sequence Learning,2024.1.5,None,2024-10-16 17h50.33.464475 +0530,
-150,z,2,3,11,3,,,,,34.26687829999719,,34.25089189998107,34.26687829999719,35.26612169999862,35.26612169999862,35.26612169999862,35.26612169999862,35.280091600026935,36.262722600018606,36.262722600018606,36.530765200033784,x,0,0.262547199963592,None,,,,,,,,,,,,,,,727214,001,2024-10-16_17h50.24.138,4.0 Motor Sequence Learning,2024.1.5,None,2024-10-16 17h50.33.464475 +0530,
-50,x,3,0,12,0,,,,,36.5479900999926,,36.5324791999883,36.5479900999926,37.531510500004515,37.531510500004515,37.531510500004515,37.531510500004515,37.54476989997784,38.54397779999999,38.54397779999999,39.12875580001855,v,0,0.5721488000126556,None,,,,,,,,,,,,,,,727214,001,2024-10-16_17h50.24.138,4.0 Motor Sequence Learning,2024.1.5,None,2024-10-16 17h50.33.464475 +0530,
150,v,3,1,13,1,,,,,39.14592460001586,,39.131111500028055,39.14592460001586,40.14260469999863,40.14260469999863,40.14260469999863,40.14260469999863,40.14260469999863,41.14179480000166,41.14179480000166,41.90957379998872,z,0,0.7509856999968179,None,,,,,,,,,,,,,,,727214,001,2024-10-16_17h50.24.138,4.0 Motor Sequence Learning,2024.1.5,None,2024-10-16 17h50.33.464475 +0530,
50,c,3,2,14,2,,,,,41.926963999983855,,41.91149070003303,41.926963999983855,42.9238852999988,42.9238852999988,42.9238852999988,42.9238852999988,42.9238852999988,43.92316210002173,43.92316210002173,44.50747539999429,c,1,0.578539699956309,None,,,,,,,,,,,,,,,727214,001,2024-10-16_17h50.24.138,4.0 Motor Sequence Learning,2024.1.5,None,2024-10-16 17h50.33.464475 +0530,
-150,z,3,3,15,3,,,,,44.52444429998286,,44.50936919997912,44.52444429998286,45.521753899985924,45.521753899985924,45.521753899985924,45.521753899985924,45.521753899985924,46.52079219999723,46.52079219999723,46.888519699976314,x,0,0.3565433000330813,None,,,,,,,,,,,,,,,727214,001,2024-10-16_17h50.24.138,4.0 Motor Sequence Learning,2024.1.5,None,2024-10-16 17h50.33.464475 +0530,
-50,x,4,0,16,0,,,,,46.90654920000816,,46.890136800007895,46.90654920000816,47.888833899982274,47.888833899982274,47.888833899982274,47.888833899982274,47.91964759997791,48.902281299990136,48.902281299990136,49.82019380002748,v,0,0.9129116000258364,None,,,,,,,,,,,,,,,727214,001,2024-10-16_17h50.24.138,4.0 Motor Sequence Learning,2024.1.5,None,2024-10-16 17h50.33.464475 +0530,
150,v,4,1,17,1,,,,,49.83708899997873,,49.82249970000703,49.83708899997873,50.83389629999874,50.83389629999874,50.83389629999874,50.83389629999874,50.83389629999874,51.83288800000446,51.83288800000446,53.03318089997629,z,0,1.1835647000116296,None,,,,,,,,,,,,,,,727214,001,2024-10-16_17h50.24.138,4.0 Motor Sequence Learning,2024.1.5,None,2024-10-16 17h50.33.464475 +0530,
50,c,4,2,18,2,,,,,53.05123109999113,,53.03505280002719,53.05123109999113,54.033695099991746,54.033695099991746,54.033695099991746,54.033695099991746,54.04804179997882,55.0473481999943,55.0473481999943,56.11526900000172,c,1,1.0657688999781385,None,,,,,,,,,,,,,,,727214,001,2024-10-16_17h50.24.138,4.0 Motor Sequence Learning,2024.1.5,None,2024-10-16 17h50.33.464475 +0530,
-150,z,4,3,19,3,,,,,56.13197779998882,,56.11719850002555,56.13197779998882,57.128739700012375,57.128739700012375,57.128739700012375,57.128739700012375,57.128739700012375,58.12782639998477,58.12782639998477,58.39637450000737,x,0,0.258268199977465,None,,,,,,,,,,,,,,,727214,001,2024-10-16_17h50.24.138,4.0 Motor Sequence Learning,2024.1.5,None,2024-10-16 17h50.33.464475 +0530,
-50,x,5,0,20,0,,,,,58.41373670002213,,58.398297299980186,58.41373670002213,59.41039059998002,59.41039059998002,59.41039059998002,59.41039059998002,59.41039059998002,60.409514700004365,60.409514700004365,61.143841699988116,v,0,0.7270226000109687,None,,,,,,,,,,,,,,,727214,001,2024-10-16_17h50.24.138,4.0 Motor Sequence Learning,2024.1.5,None,2024-10-16 17h50.33.464475 +0530,
150,v,5,1,21,1,,,,,61.16143520001788,,61.14568800001871,61.16143520001788,62.158055100007914,62.158055100007914,62.158055100007914,62.158055100007914,62.158055100007914,63.1571483000298,63.1571483000298,64.70746740000322,z,0,1.5444827000028454,None,,,,,,,,,,,,,,,727214,001,2024-10-16_17h50.24.138,4.0 Motor Sequence Learning,2024.1.5,None,2024-10-16 17h50.33.464475 +0530,
50,c,5,2,22,2,,,,,64.72437670000363,,64.70934010000201,64.72437670000363,65.70801250002114,65.70801250002114,65.70801250002114,65.70801250002114,65.7214907000307,66.72060519998195,66.72060519998195,69.10367300000507,c,1,2.3776273999828845,None,,,,,,,,,,,,,,,727214,001,2024-10-16_17h50.24.138,4.0 Motor Sequence Learning,2024.1.5,None,2024-10-16 17h50.33.464475 +0530,
-150,z,5,3,23,3,,,,,69.12112850003177,,69.10545199998887,69.12112850003177,70.10420549998526,70.10420549998526,70.10420549998526,70.10420549998526,70.11806780000916,71.11696070001926,71.11696070001926,73.18363709998084,x,0,2.05013190000318,None,,,,,,,,,,,,,,,727214,001,2024-10-16_17h50.24.138,4.0 Motor Sequence Learning,2024.1.5,None,2024-10-16 17h50.33.464475 +0530,
-50,x,6,0,24,0,,,,,73.20126000000164,,73.18558290001238,73.20126000000164,74.18437919998541,74.18437919998541,74.18437919998541,74.18437919998541,74.19816899998114,75.19730240001809,75.19730240001809,75.61506260000169,v,0,0.4066696999943815,None,,,,,,,,,,,,,,,727214,001,2024-10-16_17h50.24.138,4.0 Motor Sequence Learning,2024.1.5,None,2024-10-16 17h50.33.464475 +0530,
150,v,6,1,25,1,,,,,75.63279499998316,,75.61710179998772,75.63279499998316,76.63160040002549,76.63160040002549,76.63160040002549,76.63160040002549,76.64568379998673,77.62866879999638,77.62866879999638,78.56252029997995,z,0,0.9221106000477448,None,,,,,,,,,,,,,,,727214,001,2024-10-16_17h50.24.138,4.0 Motor Sequence Learning,2024.1.5,None,2024-10-16 17h50.33.464475 +0530,
50,c,6,2,26,2,,,,,78.58011530002113,,78.56442780001089,78.58011530002113,79.56276719999732,79.56276719999732,79.56276719999732,79.56276719999732,79.57704930001637,80.5759208999807,80.5759208999807,82.79224540002178,c,1,2.2029297000262886,None,,,,,,,,,,,,,,,727214,001,2024-10-16_17h50.24.138,4.0 Motor Sequence Learning,2024.1.5,None,2024-10-16 17h50.33.464475 +0530,
-150,z,6,3,27,3,,,,,82.81014730001334,,82.79453270003432,82.81014730001334,83.7930755999987,83.7930755999987,83.7930755999987,83.7930755999987,83.8067705000285,84.80598170001758,84.80598170001758,85.74023830000078,x,0,0.9207242000265978,None,,,,,,,,,,,,,,,727214,001,2024-10-16_17h50.24.138,4.0 Motor Sequence Learning,2024.1.5,None,2024-10-16 17h50.33.464475 +0530,
-50,x,7,0,28,0,,,,,85.75775280001108,,85.74214889999712,85.75775280001108,86.75438629998825,86.75438629998825,86.75438629998825,86.75438629998825,86.75438629998825,87.75340320001123,87.75340320001123,89.42071879998548,v,0,1.6554270999622531,None,,,,,,,,,,,,,,,727214,001,2024-10-16_17h50.24.138,4.0 Motor Sequence Learning,2024.1.5,None,2024-10-16 17h50.33.464475 +0530,
150,v,7,1,29,1,,,,,89.43833239999367,,89.42289300000994,89.43833239999367,90.43489319999935,90.43489319999935,90.43489319999935,90.43489319999935,90.43489319999935,91.43393569998443,91.43393569998443,92.18472349998774,z,0,0.7402669999864884,None,,,,,,,,,,,,,,,727214,001,2024-10-16_17h50.24.138,4.0 Motor Sequence Learning,2024.1.5,None,2024-10-16 17h50.33.464475 +0530,
50,c,7,2,30,2,,,,,92.20222869998543,,92.18670150003163,92.20222869998543,93.1990066000144,93.1990066000144,93.1990066000144,93.1990066000144,93.1990066000144,94.19830290001119,94.19830290001119,95.1823736000224,c,1,0.975903999991715,None,,,,,,,,,,,,,,,727214,001,2024-10-16_17h50.24.138,4.0 Motor Sequence Learning,2024.1.5,None,2024-10-16 17h50.33.464475 +0530,
-150,z,7,3,31,3,,,,,95.19950540002901,,95.18403260002378,95.19950540002901,96.1826230000006,96.1826230000006,96.1826230000006,96.1826230000006,96.19653910002671,97.19571579998592,97.19571579998592,98.29663549998077,x,0,1.0983303999528289,None,,,,,,,,,,,,,,,727214,001,2024-10-16_17h50.24.138,4.0 Motor Sequence Learning,2024.1.5,None,2024-10-16 17h50.33.464475 +0530,
-50,x,8,0,32,0,,,,,98.3142939999816,,98.29837600002065,98.3142939999816,99.31105900002876,99.31105900002876,99.31105900002876,99.31105900002876,99.31105900002876,100.30997900001239,100.30997900001239,101.47695490001934,v,0,1.155637999996543,None,,,,,,,,,,,,,,,727214,001,2024-10-16_17h50.24.138,4.0 Motor Sequence Learning,2024.1.5,None,2024-10-16 17h50.33.464475 +0530,
150,v,8,1,33,1,,,,,101.49471410003025,,101.47861589997774,101.49471410003025,102.47740710002836,102.47740710002836,102.47740710002836,102.47740710002836,102.4913803000236,103.49063630000455,103.49063630000455,104.75820410001324,z,0,1.2653432000079192,None,,,,,,,,,,,,,,,727214,001,2024-10-16_17h50.24.138,4.0 Motor Sequence Learning,2024.1.5,None,2024-10-16 17h50.33.464475 +0530,
50,c,8,2,34,2,,,,,104.77547799999593,,104.76022200001171,104.77547799999593,105.77235869999276,105.77235869999276,105.77235869999276,105.77235869999276,105.77235869999276,106.77137550001498,106.77137550001498,108.32141370000318,c,1,1.5476736999698915,None,,,,,,,,,,,,,,,727214,001,2024-10-16_17h50.24.138,4.0 Motor Sequence Learning,2024.1.5,None,2024-10-16 17h50.33.464475 +0530,
-150,z,8,3,35,3,,,,,108.33865809999406,,108.32352630002424,108.33865809999406,109.32232819998171,109.32232819998171,109.32232819998171,109.32232819998171,109.33574870001758,110.335047999979,110.335047999979,111.15256439999212,x,0,0.8035012999898754,None,,,,,,,,,,,,,,,727214,001,2024-10-16_17h50.24.138,4.0 Motor Sequence Learning,2024.1.5,None,2024-10-16 17h50.33.464475 +0530,
-50,x,9,0,36,0,,,,,111.1702497000224,,111.154479800025,111.1702497000224,112.16710700001568,112.16710700001568,112.16710700001568,112.16710700001568,112.16710700001568,113.16608340002131,113.16608340002131,114.06702259997837,v,0,0.8898684000014327,None,,,,,,,,,,,,,,,727214,001,2024-10-16_17h50.24.138,4.0 Motor Sequence Learning,2024.1.5,None,2024-10-16 17h50.33.464475 +0530,
150,v,9,1,37,1,,,,,114.08398240001407,,114.06889890000457,114.08398240001407,115.08110300003318,115.08110300003318,115.08110300003318,115.08110300003318,115.08110300003318,116.08038900000975,116.08038900000975,116.6975686000078,z,0,0.6107523000100628,None,,,,,,,,,,,,,,,727214,001,2024-10-16_17h50.24.138,4.0 Motor Sequence Learning,2024.1.5,None,2024-10-16 17h50.33.464475 +0530,
50,c,9,2,38,2,,,,,116.71535409998614,,116.69940179999685,116.71535409998614,117.6983934000018,117.6983934000018,117.6983934000018,117.6983934000018,117.71229100000346,118.7116000999813,118.7116000999813,119.04651760001434,c,1,0.3179948999895714,None,,,,,,,,,,,,,,,727214,001,2024-10-16_17h50.24.138,4.0 Motor Sequence Learning,2024.1.5,None,2024-10-16 17h50.33.464475 +0530,
-150,z,9,3,39,3,,,,,119.06384170003003,,119.0484046000056,119.06384170003003,120.06044640002074,120.06044640002074,120.06044640002074,120.06044640002074,120.06044640002074,121.05975469999248,121.05975469999248,122.12714180001058,x,0,1.0534009999828413,None,,,,,,,,,,,,,,,727214,001,2024-10-16_17h50.24.138,4.0 Motor Sequence Learning,2024.1.5,None,2024-10-16 17h50.33.464475 +0530,
-50,x,10,0,40,0,,,,,122.14459209999768,,122.12907580001047,122.14459209999768,123.14405499998247,123.14405499998247,123.14405499998247,123.14405499998247,123.15789770003175,124.1403403999866,124.1403403999866,125.67415999999503,v,0,1.5255622999975458,None,,,,,,,,,,,,,,,727214,001,2024-10-16_17h50.24.138,4.0 Motor Sequence Learning,2024.1.5,None,2024-10-16 17h50.33.464475 +0530,
150,v,10,1,41,1,,,,,125.69164819997968,,125.67583850002848,125.69164819997968,126.67412919999333,126.67412919999333,126.67412919999333,126.67412919999333,126.68835419998504,127.6876427999814,127.6876427999814,128.07178890000796,z,0,0.3762908999924548,None,,,,,,,,,,,,,,,727214,001,2024-10-16_17h50.24.138,4.0 Motor Sequence Learning,2024.1.5,None,2024-10-16 17h50.33.464475 +0530,
50,c,10,2,42,2,,,,,128.0895275999792,,128.07381879998138,128.0895275999792,129.07211910001934,129.07211910001934,129.07211910001934,129.07211910001934,129.08657210000092,130.08542720001424,130.08542720001424,130.20395669998834,c,1,0.10836900002323091,None,,,,,,,,,,,,,,,727214,001,2024-10-16_17h50.24.138,4.0 Motor Sequence Learning,2024.1.5,None,2024-10-16 17h50.33.464475 +0530,
-150,z,10,3,43,3,,,,,130.221149399993,,130.20577990001766,130.221149399993,131.21784789999947,131.21784789999947,131.21784789999947,131.21784789999947,131.21784789999947,132.21691120002652,132.21691120002652,132.56810999999288,x,0,0.3396569999749772,None,,,,,,,,,,,,,,,727214,001,2024-10-16_17h50.24.138,4.0 Motor Sequence Learning,2024.1.5,None,2024-10-16 17h50.33.464475 +0530,
-50,x,11,0,44,0,,,,,132.58609390002675,,132.57004770002095,132.58609390002675,133.56840109999757,133.56840109999757,133.56840109999757,133.56840109999757,133.59941439999966,134.5819340000162,134.5819340000162,134.91564419999486,v,0,0.31718810001621023,None,,,,,,,,,,,,,,,727214,001,2024-10-16_17h50.24.138,4.0 Motor Sequence Learning,2024.1.5,None,2024-10-16 17h50.33.464475 +0530,
150,v,11,1,45,1,,,,,134.93379460001597,,134.9174936999916,134.93379460001597,135.9166172000114,135.9166172000114,135.9166172000114,135.9166172000114,135.93075780000072,136.92990749998717,136.92990749998717,137.86382179998327,z,0,0.9176794000086375,None,,,,,,,,,,,,,,,727214,001,2024-10-16_17h50.24.138,4.0 Motor Sequence Learning,2024.1.5,None,2024-10-16 17h50.33.464475 +0530,
50,c,11,2,46,2,,,,,137.88171099999454,,137.86564919998636,137.88171099999454,138.86398279998684,138.86398279998684,138.86398279998684,138.86398279998684,138.89501259999815,139.87749430001713,139.87749430001713,141.79359319998184,c,1,1.9049346999963745,None,,,,,,,,,,,,,,,727214,001,2024-10-16_17h50.24.138,4.0 Motor Sequence Learning,2024.1.5,None,2024-10-16 17h50.33.464475 +0530,
-150,z,11,3,47,3,,,,,141.81102660001488,,141.79601920000277,141.81102660001488,142.8081714999862,142.8081714999862,142.8081714999862,142.8081714999862,142.8081714999862,143.80745660001412,143.80745660001412,144.82427199999802,x,0,1.003016899980139,None,,,,,,,,,,,,,,,727214,001,2024-10-16_17h50.24.138,4.0 Motor Sequence Learning,2024.1.5,None,2024-10-16 17h50.33.464475 +0530,
-50,x,12,0,48,0,,,,,144.8422851000214,,144.8262314000167,144.8422851000214,145.825546499982,145.825546499982,145.825546499982,145.825546499982,145.83930520003196,146.83825730002718,146.83825730002718,148.47216840001056,v,0,1.6198533999850042,None,,,,,,,,,,,,,,,727214,001,2024-10-16_17h50.24.138,4.0 Motor Sequence Learning,2024.1.5,None,2024-10-16 17h50.33.464475 +0530,
150,v,12,1,49,1,,,,,148.4898178000003,,148.4741703000036,148.4898178000003,149.48626720003085,149.48626720003085,149.48626720003085,149.48626720003085,149.48626720003085,150.48551949998364,150.48551949998364,150.9529702999862,x,0,0.46098609996261075,None,,,,,,,,,,,,,,,727214,001,2024-10-16_17h50.24.138,4.0 Motor Sequence Learning,2024.1.5,None,2024-10-16 17h50.33.464475 +0530,
50,c,12,2,50,2,,,,,150.9709638999775,,150.95507429999998,150.9709638999775,151.95340410002973,151.95340410002973,151.95340410002973,151.95340410002973,151.96763470000587,152.9666748000309,152.9666748000309,153.96765730000334,c,1,0.9890149999991991,None,,,,,,,,,,,,,,,727214,001,2024-10-16_17h50.24.138,4.0 Motor Sequence Learning,2024.1.5,None,2024-10-16 17h50.33.464475 +0530,
-150,z,12,3,51,3,,,,,153.98517300002277,,153.969147900003,153.98517300002277,154.98172709997743,154.98172709997743,154.98172709997743,154.98172709997743,154.98172709997743,155.98113560001366,155.98113560001366,156.7817296999856,x,0,0.7957619000226259,None,,,,,,,,,,,,,,,727214,001,2024-10-16_17h50.24.138,4.0 Motor Sequence Learning,2024.1.5,None,2024-10-16 17h50.33.464475 +0530,
-50,x,13,0,52,0,,,,,156.79864069999894,,156.78379950003,156.79864069999894,157.7958635999821,157.7958635999821,157.7958635999821,157.7958635999821,157.7958635999821,158.7951516000321,158.7951516000321,159.11325520003447,v,0,0.3087868999573402,None,,,,,,,,,,,,,,,727214,001,2024-10-16_17h50.24.138,4.0 Motor Sequence Learning,2024.1.5,None,2024-10-16 17h50.33.464475 +0530,
150,v,13,1,53,1,,,,,159.1306343000033,,159.11531030002516,159.1306343000033,160.12766820000252,160.12766820000252,160.12766820000252,160.12766820000252,160.12766820000252,161.12680690002162,161.12680690002162,161.6773812000174,z,0,0.5337303000269458,None,,,,,,,,,,,,,,,727214,001,2024-10-16_17h50.24.138,4.0 Motor Sequence Learning,2024.1.5,None,2024-10-16 17h50.33.464475 +0530,
50,c,13,2,54,2,,,,,161.69493280001916,,161.67926479998278,161.69493280001916,162.6782256999868,162.6782256999868,162.6782256999868,162.6782256999868,162.69195459998446,163.69105900003342,163.69105900003342,164.55901590001304,c,1,0.8663390000001527,None,,,,,,,,,,,,,,,727214,001,2024-10-16_17h50.24.138,4.0 Motor Sequence Learning,2024.1.5,None,2024-10-16 17h50.33.464475 +0530,
-150,z,13,3,55,3,,,,,164.57641239999793,,164.56079309998313,164.57641239999793,165.57314589997986,165.57314589997986,165.57314589997986,165.57314589997986,165.57314589997986,166.57232239999576,166.57232239999576,167.63967579999007,x,0,1.059842100017704,None,,,,,,,,,,,,,,,727214,001,2024-10-16_17h50.24.138,4.0 Motor Sequence Learning,2024.1.5,None,2024-10-16 17h50.33.464475 +0530,
-50,x,14,0,56,0,,,,,167.65733030001866,,167.6418201000197,167.65733030001866,168.65610550000565,168.65610550000565,168.65610550000565,168.65610550000565,168.67022760002874,169.65304499998456,169.65304499998456,170.8702405000222,v,0,1.201469299965538,None,,,,,,,,,,,,,,,727214,001,2024-10-16_17h50.24.138,4.0 Motor Sequence Learning,2024.1.5,None,2024-10-16 17h50.33.464475 +0530,
150,v,14,1,57,1,,,,,170.8876405999763,,170.87210310000228,170.8876405999763,171.87056040001335,171.87056040001335,171.87056040001335,171.87056040001335,171.88434589997632,172.88345590000972,172.88345590000972,173.21819500002312,z,0,0.3203994000214152,None,,,,,,,,,,,,,,,727214,001,2024-10-16_17h50.24.138,4.0 Motor Sequence Learning,2024.1.5,None,2024-10-16 17h50.33.464475 +0530,
50,c,14,2,58,2,,,,,173.23533559998032,,173.22010839998256,173.23533559998032,174.21858169999905,174.21858169999905,174.21858169999905,174.21858169999905,174.2325272000162,175.231532100006,175.231532100006,177.74830779997865,c,1,2.5000670999870636,None,,,,,,,,,,,,,,,727214,001,2024-10-16_17h50.24.138,4.0 Motor Sequence Learning,2024.1.5,None,2024-10-16 17h50.33.464475 +0530,
-150,z,14,3,59,3,,,,,177.76531669998076,,177.75139550003223,177.76531669998076,178.76229370001238,178.76229370001238,178.76229370001238,178.76229370001238,178.76229370001238,179.76135099999374,179.76135099999374,180.7616468000342,x,0,0.9892715000314638,None,,,,,,,,,,,,,,,727214,001,2024-10-16_17h50.24.138,4.0 Motor Sequence Learning,2024.1.5,None,2024-10-16 17h50.33.464475 +0530,
-50,x,15,0,60,0,,,,,180.77921389997937,,180.76387640001485,180.77921389997937,181.76237940002466,181.76237940002466,181.76237940002466,181.76237940002466,181.77622440003324,182.7754381999839,182.7754381999839,184.39219099999173,v,0,1.6098838000325486,None,,,,,,,,,,,,,,,727214,001,2024-10-16_17h50.24.138,4.0 Motor Sequence Learning,2024.1.5,None,2024-10-16 17h50.33.464475 +0530,
150,v,15,1,61,1,,,,,184.40974790003384,,184.39408499997808,184.40974790003384,185.39299510000274,185.39299510000274,185.39299510000274,185.39299510000274,185.4068760999944,186.40599810000276,186.40599810000276,186.95719250000548,x,0,0.5366813999717124,None,,,,,,,,,,,,,,,727214,001,2024-10-16_17h50.24.138,4.0 Motor Sequence Learning,2024.1.5,None,2024-10-16 17h50.33.464475 +0530,
50,c,15,2,62,2,,,,,186.97444369998993,,186.9590557999909,186.97444369998993,187.97111919999588,187.97111919999588,187.97111919999588,187.97111919999588,187.97111919999588,188.97033919999376,188.97033919999376,189.37132099998416,c,1,0.38571719999890774,None,,,,,,,,,,,,,,,727214,001,2024-10-16_17h50.24.138,4.0 Motor Sequence Learning,2024.1.5,None,2024-10-16 17h50.33.464475 +0530,
-150,z,15,3,63,3,,,,,189.3891181999934,,189.37328639999032,189.3891181999934,190.3718893000041,190.3718893000041,190.3718893000041,190.3718893000041,190.38608580001164,191.38502220000373,191.38502220000373,191.6878397000255,x,0,0.30059719999553636,None,,,,,,,,,,,,,,,727214,001,2024-10-16_17h50.24.138,4.0 Motor Sequence Learning,2024.1.5,None,2024-10-16 17h50.33.464475 +0530,
-50,x,16,0,64,0,,,,,191.7040113999974,,191.68970500002615,191.7040113999974,192.70296880003298,192.70296880003298,192.70296880003298,192.70296880003298,192.71683290001238,193.6999225000036,193.6999225000036,194.13426700001583,v,0,0.4300480999518186,None,,,,,,,,,,,,,,,727214,001,2024-10-16_17h50.24.138,4.0 Motor Sequence Learning,2024.1.5,None,2024-10-16 17h50.33.464475 +0530,
150,v,16,1,65,1,,,,,194.1517251000041,,194.13605909998296,194.1517251000041,195.13460450002458,195.13460450002458,195.13460450002458,195.13460450002458,195.14882880001096,196.14786379999714,196.14786379999714,196.21555750002153,z,0,0.05520719999913126,None,,,,,,,,,,,,,,,727214,001,2024-10-16_17h50.24.138,4.0 Motor Sequence Learning,2024.1.5,None,2024-10-16 17h50.33.464475 +0530,
50,c,16,2,66,2,,,,,196.23373769997852,,196.21737570001278,196.23373769997852,197.2160525000072,197.2160525000072,197.2160525000072,197.2160525000072,197.24696940003196,198.22965850000037,198.22965850000037,198.34716730000218,c,1,0.10035189997870475,None,,,,,,,,,,,,,,,727214,001,2024-10-16_17h50.24.138,4.0 Motor Sequence Learning,2024.1.5,None,2024-10-16 17h50.33.464475 +0530,
-150,z,16,3,67,3,,,,,198.36473259999184,,198.34896580001805,198.36473259999184,199.34798080002656,199.34798080002656,199.34798080002656,199.34798080002656,199.36179450002965,200.3609452000237,200.3609452000237,200.56253840000136,x,0,0.19036789995152503,None,,,,,,,,,,,,,,,727214,001,2024-10-16_17h50.24.138,4.0 Motor Sequence Learning,2024.1.5,None,2024-10-16 17h50.33.464475 +0530,
-50,x,17,0,68,0,,,,,200.58020810002927,,200.5645472999895,200.58020810002927,201.57958900002996,201.57958900002996,201.57958900002996,201.57958900002996,201.59339699998964,202.57650580001064,202.57650580001064,202.8618667999981,v,0,0.2824129000073299,None,,,,,,,,,,,,,,,727214,001,2024-10-16_17h50.24.138,4.0 Motor Sequence Learning,2024.1.5,None,2024-10-16 17h50.33.464475 +0530,
150,v,17,1,69,1,,,,,202.878332399996,,202.8642173000262,202.878332399996,203.87490320001962,203.87490320001962,203.87490320001962,203.87490320001962,203.87490320001962,204.87424309999915,204.87424309999915,205.14187220000895,z,0,0.2591799000510946,None,,,,,,,,,,,,,,,727214,001,2024-10-16_17h50.24.138,4.0 Motor Sequence Learning,2024.1.5,None,2024-10-16 17h50.33.464475 +0530,
50,c,17,2,70,2,,,,,205.15918800001964,,205.14409379998688,205.15918800001964,206.15610239998205,206.15610239998205,206.15610239998205,206.15610239998205,206.15610239998205,207.1554243999999,207.1554243999999,207.3738519999897,c,1,0.21439180005108938,None,,,,,,,,,,,,,,,727214,001,2024-10-16_17h50.24.138,4.0 Motor Sequence Learning,2024.1.5,None,2024-10-16 17h50.33.464475 +0530,
-150,z,17,3,71,3,,,,,207.3915012999787,,207.37598760001129,207.3915012999787,208.38797129999148,208.38797129999148,208.38797129999148,208.38797129999148,208.38797129999148,209.3869811000186,209.3869811000186,209.60490969999228,x,0,0.2010213999892585,None,,,,,,,,,,,,,,,727214,001,2024-10-16_17h50.24.138,4.0 Motor Sequence Learning,2024.1.5,None,2024-10-16 17h50.33.464475 +0530,
-50,x,18,0,72,0,,,,,209.62290630000643,,209.60680090001551,209.62290630000643,210.60502810002072,210.60502810002072,210.60502810002072,210.60502810002072,210.6361528999987,211.6184985000291,211.6184985000291,211.86982690001605,v,0,0.24549430003389716,None,,,,,,,,,,,,,,,727214,001,2024-10-16_17h50.24.138,4.0 Motor Sequence Learning,2024.1.5,None,2024-10-16 17h50.33.464475 +0530,
150,v,18,1,73,1,,,,,211.88699989998713,,211.87141660001362,211.88699989998713,212.87015710002743,212.87015710002743,212.87015710002743,212.87015710002743,212.88433129998157,213.88355800003046,213.88355800003046,213.91784970002482,z,0,0.025351500022225082,None,,,,,,,,,,,,,,,727214,001,2024-10-16_17h50.24.138,4.0 Motor Sequence Learning,2024.1.5,None,2024-10-16 17h50.33.464475 +0530,
50,c,18,2,74,2,,,,,213.93558290001238,,213.91939759999514,213.93558290001238,214.91910020000068,214.91910020000068,214.91910020000068,214.91910020000068,214.9325978999841,215.93149170000106,215.93149170000106,216.23306020000018,c,1,0.2951458999887109,None,,,,,,,,,,,,,,,727214,001,2024-10-16_17h50.24.138,4.0 Motor Sequence Learning,2024.1.5,None,2024-10-16 17h50.33.464475 +0530,
-150,z,18,3,75,3,,,,,216.25055360002443,,216.23488689999795,216.25055360002443,217.24725369998487,217.24725369998487,217.24725369998487,217.24725369998487,217.24725369998487,218.24600869999267,218.24600869999267,218.4817531000008,x,0,0.2276228999835439,None,,,,,,,,,,,,,,,727214,001,2024-10-16_17h50.24.138,4.0 Motor Sequence Learning,2024.1.5,None,2024-10-16 17h50.33.464475 +0530,
-50,x,19,0,76,0,,,,,218.49818210001104,,218.4834805999999,218.49818210001104,219.49497980001615,219.49497980001615,219.49497980001615,219.49497980001615,219.49497980001615,220.494195199979,220.494195199979,220.8125149999978,v,0,0.3079264999832958,None,,,,,,,,,,,,,,,727214,001,2024-10-16_17h50.24.138,4.0 Motor Sequence Learning,2024.1.5,None,2024-10-16 17h50.33.464475 +0530,
150,v,19,1,77,1,,,,,220.82974770001601,,220.8144433000125,220.82974770001601,221.82674749998841,221.82674749998841,221.82674749998841,221.82674749998841,221.82674749998841,222.8260502999765,222.8260502999765,223.67704690003302,z,0,0.848210999974981,None,,,,,,,,,,,,,,,727214,001,2024-10-16_17h50.24.138,4.0 Motor Sequence Learning,2024.1.5,None,2024-10-16 17h50.33.464475 +0530,
50,c,19,2,78,2,,,,,223.6938929000171,,223.67880080000032,223.6938929000171,224.6909871000098,224.6909871000098,224.6909871000098,224.6909871000098,224.6909871000098,225.69019079999998,225.69019079999998,227.07360780000454,c,1,1.3744070999673568,None,,,,,,,,,,,,,,,727214,001,2024-10-16_17h50.24.138,4.0 Motor Sequence Learning,2024.1.5,None,2024-10-16 17h50.33.464475 +0530,
-150,z,19,3,79,3,,,,,227.09138719999464,,227.07498109998414,227.09138719999464,228.07422270003008,228.07422270003008,228.07422270003008,228.07422270003008,228.0881408000132,229.0871243000147,229.0871243000147,229.93804039998213,x,0,0.8400404999847524,None,,,,,,,,,,,,,,,727214,001,2024-10-16_17h50.24.138,4.0 Motor Sequence Learning,2024.1.5,None,2024-10-16 17h50.33.464475 +0530,
-50,x,20,0,80,0,,,,,229.95621919998666,,229.9399706000113,229.95621919998666,230.93838629999664,230.93838629999664,230.93838629999664,230.93838629999664,230.96930350002367,231.95196829998167,231.95196829998167,232.9526571999886,v,0,0.9983785999938846,None,,,,,,,,,,,,,,,727214,001,2024-10-16_17h50.24.138,4.0 Motor Sequence Learning,2024.1.5,None,2024-10-16 17h50.33.464475 +0530,
150,v,20,1,81,1,,,,,232.96987790003186,,232.9545976999798,232.96987790003186,233.96701800002484,233.96701800002484,233.96701800002484,233.96701800002484,233.96701800002484,234.96601430000737,234.96601430000737,235.78356230002828,z,0,0.8105123999994248,None,,,,,,,,,,,,,,,727214,001,2024-10-16_17h50.24.138,4.0 Motor Sequence Learning,2024.1.5,None,2024-10-16 17h50.33.464475 +0530,
50,c,20,2,82,2,,,,,235.80109159997664,,235.78573419997701,235.80109159997664,236.80033040000126,236.80033040000126,236.80033040000126,236.80033040000126,236.81454069999745,237.796895699983,237.796895699983,238.6806207000045,c,1,0.8738228000001982,None,,,,,,,,,,,,,,,727214,001,2024-10-16_17h50.24.138,4.0 Motor Sequence Learning,2024.1.5,None,2024-10-16 17h50.33.464475 +0530,
-150,z,20,3,83,3,,,,,238.69840749999275,,238.68252219998976,238.69840749999275,239.68112399999518,239.68112399999518,239.68112399999518,239.68112399999518,239.69553700002143,240.6942087999778,240.6942087999778,243.52717060002033,x,0,2.816312800045125,None,,,,,,,,,,,,,,,727214,001,2024-10-16_17h50.24.138,4.0 Motor Sequence Learning,2024.1.5,None,2024-10-16 17h50.33.464475 +0530,
-50,x,21,0,84,0,,,,,243.54479479999281,,243.52914260001853,243.54479479999281,244.54143039998598,244.54143039998598,244.54143039998598,244.54143039998598,244.54143039998598,245.54077080002753,245.54077080002753,245.94174109998858,v,0,0.390801300003659,None,,,,,,,,,,,,,,,727214,001,2024-10-16_17h50.24.138,4.0 Motor Sequence Learning,2024.1.5,None,2024-10-16 17h50.33.464475 +0530,
150,v,21,1,85,1,,,,,245.95942309999373,,245.94340350001585,245.95942309999373,246.94207470002584,246.94207470002584,246.94207470002584,246.94207470002584,246.95617170003243,247.95530999999028,247.95530999999028,248.97237740003038,z,0,1.0024433000362478,None,,,,,,,,,,,,,,,727214,001,2024-10-16_17h50.24.138,4.0 Motor Sequence Learning,2024.1.5,None,2024-10-16 17h50.33.464475 +0530,
50,c,21,2,86,2,,,,,248.99049140000716,,248.97429620003095,248.99049140000716,249.97273209999548,249.97273209999548,249.97273209999548,249.97273209999548,250.00369749998208,250.9862479000003,250.9862479000003,252.07018139999127,c,1,1.080617200001143,None,,,,,,,,,,,,,,,727214,001,2024-10-16_17h50.24.138,4.0 Motor Sequence Learning,2024.1.5,None,2024-10-16 17h50.33.464475 +0530,
-150,z,21,3,87,3,,,,,252.0875359000056,,252.07239520002622,252.0875359000056,253.08442849997664,253.08442849997664,253.08442849997664,253.08442849997664,253.08442849997664,254.08370489999652,254.08370489999652,256.4497671999852,x,0,2.3621244999812916,None,,,,,,,,,,,,,,,727214,001,2024-10-16_17h50.24.138,4.0 Motor Sequence Learning,2024.1.5,None,2024-10-16 17h50.33.464475 +0530,
-50,x,22,0,88,0,,,,,256.4673687000177,,256.4516280000098,256.4673687000177,257.450331799977,257.450331799977,257.450331799977,257.450331799977,257.4641001999844,258.4632627000101,258.4632627000101,259.56375390000176,v,0,1.0921248000231571,None,,,,,,,,,,,,,,,727214,001,2024-10-16_17h50.24.138,4.0 Motor Sequence Learning,2024.1.5,None,2024-10-16 17h50.33.464475 +0530,
150,v,22,1,89,1,,,,,259.58131320000393,,259.5656105999951,259.58131320000393,260.56394199997885,260.56394199997885,260.56394199997885,260.56394199997885,260.57848530000774,261.57746120000957,261.57746120000957,262.6115119000315,z,0,1.0251578000024892,None,,,,,,,,,,,,,,,727214,001,2024-10-16_17h50.24.138,4.0 Motor Sequence Learning,2024.1.5,None,2024-10-16 17h50.33.464475 +0530,
50,c,22,2,90,2,,,,,262.62905079999473,,262.613311299996,262.62905079999473,263.61174399999436,263.61174399999436,263.61174399999436,263.61174399999436,263.6257889000117,264.62501439999323,264.62501439999323,270.2719756999868,c,1,5.641894300002605,None,,,,,,,,,,,,,,,727214,001,2024-10-16_17h50.24.138,4.0 Motor Sequence Learning,2024.1.5,None,2024-10-16 17h50.33.464475 +0530,
-150,z,22,3,91,3,,,,,270.2894087000168,,270.273797700007,270.2894087000168,271.272202400025,271.272202400025,271.272202400025,271.272202400025,271.2860822000075,272.28540430002613,272.28540430002613,274.2352704000077,x,0,1.9372616999899037,None,,,,,,,,,,,,,,,727214,001,2024-10-16_17h50.24.138,4.0 Motor Sequence Learning,2024.1.5,None,2024-10-16 17h50.33.464475 +0530,
-50,x,23,0,92,0,,,,,274.2523806000245,,274.23718130000634,274.2523806000245,275.2357066000113,275.2357066000113,275.2357066000113,275.2357066000113,275.249552400026,276.2485261000111,276.2485261000111,277.9652750000241,v,0,1.7088613000232726,None,,,,,,,,,,,,,,,727214,001,2024-10-16_17h50.24.138,4.0 Motor Sequence Learning,2024.1.5,None,2024-10-16 17h50.33.464475 +0530,
150,v,23,1,93,1,,,,,277.98284240002977,,277.9671012000181,277.98284240002977,278.9658406000235,278.9658406000235,278.9658406000235,278.9658406000235,278.9797823000117,279.9790486000129,279.9790486000129,280.99644570000237,z,0,1.0113868999760598,None,,,,,,,,,,,,,,,727214,001,2024-10-16_17h50.24.138,4.0 Motor Sequence Learning,2024.1.5,None,2024-10-16 17h50.33.464475 +0530,
50,c,23,2,94,2,,,,,281.0137704000226,,280.99867110000923,281.0137704000226,282.01075120002497,282.01075120002497,282.01075120002497,282.01075120002497,282.01075120002497,283.010010100028,283.010010100028,284.44323949998943,c,1,1.421576399996411,None,,,,,,,,,,,,,,,727214,001,2024-10-16_17h50.24.138,4.0 Motor Sequence Learning,2024.1.5,None,2024-10-16 17h50.33.464475 +0530,
-150,z,23,3,95,3,,,,,284.4612186999875,,284.4452971999999,284.4612186999875,285.4435803000233,285.4435803000233,285.4435803000233,285.4435803000233,285.4578705999884,286.4569875000161,286.4569875000161,288.7894111999776,x,0,2.3279544000397436,None,,,,,,,,,,,,,,,727214,001,2024-10-16_17h50.24.138,4.0 Motor Sequence Learning,2024.1.5,None,2024-10-16 17h50.33.464475 +0530,
-50,x,24,0,96,0,,,,,288.8072301999782,,288.7912681000307,288.8072301999782,289.7899212000193,289.7899212000193,289.7899212000193,289.7899212000193,289.80436660000123,290.803548099997,290.803548099997,292.91995980002685,v,0,2.108805800031405,None,,,,,,,,,,,,,,,727214,001,2024-10-16_17h50.24.138,4.0 Motor Sequence Learning,2024.1.5,None,2024-10-16 17h50.33.464475 +0530,
150,v,24,1,97,1,,,,,292.93732520000776,,292.9217962999828,292.93732520000776,293.92033599998103,293.92033599998103,293.92033599998103,293.92033599998103,293.93394890002673,294.9331271999981,294.9331271999981,295.5343415000243,z,0,0.585050499998033,None,,,,,,,,,,,,,,,727214,001,2024-10-16_17h50.24.138,4.0 Motor Sequence Learning,2024.1.5,None,2024-10-16 17h50.33.464475 +0530,
50,c,24,2,98,2,,,,,295.5524776999955,,295.53626349999104,295.5524776999955,296.5345231000101,296.5345231000101,296.5345231000101,296.5345231000101,296.5654111999902,297.5479078000062,297.5479078000062,302.59522439999273,c,1,5.0320166000165045,None,,,,,,,,,,,,,,,727214,001,2024-10-16_17h50.24.138,4.0 Motor Sequence Learning,2024.1.5,None,2024-10-16 17h50.33.464475 +0530,
-150,z,24,3,99,3,,,,,302.61306790000526,,302.5970903999987,302.61306790000526,303.60961240000324,303.60961240000324,303.60961240000324,303.60961240000324,303.60961240000324,304.60891509999055,304.60891509999055,305.5092176999897,z,1,0.8875858999672346,None,,,,,,,,,,,,,,,727214,001,2024-10-16_17h50.24.138,4.0 Motor Sequence Learning,2024.1.5,None,2024-10-16 17h50.33.464475 +0530,
-50,x,25,0,100,0,,,,,305.52697290002834,,305.51118309999583,305.52697290002834,306.50982400000794,306.50982400000794,306.50982400000794,306.50982400000794,306.5237709999783,307.5230434000259,307.5230434000259,307.95761019998463,v,0,0.42541199998231605,None,,,,,,,,,,,,,,,727214,001,2024-10-16_17h50.24.138,4.0 Motor Sequence Learning,2024.1.5,None,2024-10-16 17h50.33.464475 +0530,
150,v,25,1,101,1,,,,,307.97462300001644,,307.9594791000127,307.97462300001644,308.97177180001745,308.97177180001745,308.97177180001745,308.97177180001745,308.97177180001745,309.9709190999856,309.9709190999856,310.28923749999376,z,0,0.3162071999977343,None,,,,,,,,,,,,,,,727214,001,2024-10-16_17h50.24.138,4.0 Motor Sequence Learning,2024.1.5,None,2024-10-16 17h50.33.464475 +0530,
50,c,25,2,102,2,,,,,310.3064980999916,,310.2910166999791,310.3064980999916,311.30335469997954,311.30335469997954,311.30335469997954,311.30335469997954,311.30335469997954,312.3024172000005,312.3024172000005,313.98615780001273,c,1,1.6704774999525398,None,,,,,,,,,,,,,,,727214,001,2024-10-16_17h50.24.138,4.0 Motor Sequence Learning,2024.1.5,None,2024-10-16 17h50.33.464475 +0530,
-150,z,25,3,103,3,,,,,314.0039490000345,,313.9884595000185,314.0039490000345,315.0028551000287,315.0028551000287,315.0028551000287,315.0028551000287,315.01676299999235,315.999323200027,315.999323200027,317.28367929998785,x,0,1.26662899996154,None,,,,,,,,,,,,,,,727214,001,2024-10-16_17h50.24.138,4.0 Motor Sequence Learning,2024.1.5,None,2024-10-16 17h50.33.464475 +0530,
-50,x,26,0,104,0,,,,,317.30094079999253,,317.28560469998047,317.30094079999253,318.29759700002614,318.29759700002614,318.29759700002614,318.29759700002614,318.29759700002614,319.29683629999636,319.29683629999636,320.0309880999848,v,0,0.725179799948819,None,,,,,,,,,,,,,,,727214,001,2024-10-16_17h50.24.138,4.0 Motor Sequence Learning,2024.1.5,None,2024-10-16 17h50.33.464475 +0530,
150,v,26,1,105,1,,,,,320.0486024999991,,320.0327291000285,320.0486024999991,321.0452594999806,321.0452594999806,321.0452594999806,321.0452594999806,321.0452594999806,322.0446520000114,322.0446520000114,322.6970836999826,z,0,0.6484138999949209,None,,,,,,,,,,,,,,,727214,001,2024-10-16_17h50.24.138,4.0 Motor Sequence Learning,2024.1.5,None,2024-10-16 17h50.33.464475 +0530,
50,c,26,2,106,2,,,,,322.71298880001996,,322.6992291000206,322.71298880001996,323.7096175000188,323.7096175000188,323.7096175000188,323.7096175000188,323.7096175000188,324.70854550000513,324.70854550000513,325.80915510002524,c,1,1.0983756000059657,None,,,,,,,,,,,,,,,727214,001,2024-10-16_17h50.24.138,4.0 Motor Sequence Learning,2024.1.5,None,2024-10-16 17h50.33.464475 +0530,
-150,z,26,3,107,3,,,,,325.82710500003304,,325.81104920001235,325.82710500003304,326.80956179997884,326.80956179997884,326.80956179997884,326.80956179997884,326.8240439000074,327.8231558999978,327.8231558999978,328.09085809998214,x,0,None,None,,,,,,,,,,,,,,,727214,001,2024-10-16_17h50.24.138,4.0 Motor Sequence Learning,2024.1.5,None,2024-10-16 17h50.33.464475 +0530,
-50,x,27,0,108,0,,,,,328.1080531000043,,328.0934516999987,328.1080531000043,329.10519899998326,329.10519899998326,329.10519899998326,329.10519899998326,329.10519899998326,330.10421100002714,330.10421100002714,330.4558729000273,v,0,0.3384678000002168,None,,,,,,,,,,,,,,,727214,001,2024-10-16_17h50.24.138,4.0 Motor Sequence Learning,2024.1.5,None,2024-10-16 17h50.33.464475 +0530,
150,v,27,1,109,1,,,,,330.47387990000425,,330.45775250002043,330.47387990000425,331.4726351000136,331.4726351000136,331.4726351000136,331.4726351000136,331.48663100000704,332.4692674999824,332.4692674999824,333.25355319998926,z,0,0.7699176999740303,None,,,,,,,,,,,,,,,727214,001,2024-10-16_17h50.24.138,4.0 Motor Sequence Learning,2024.1.5,None,2024-10-16 17h50.33.464475 +0530,
50,c,27,2,110,2,,,,,333.2707844999968,,333.2552355999942,333.2707844999968,334.25422070000786,334.25422070000786,334.25422070000786,334.25422070000786,334.2679377000313,335.26689570001327,335.26689570001327,336.9676688000327,c,1,1.6920638000010513,None,,,,,,,,,,,,,,,727214,001,2024-10-16_17h50.24.138,4.0 Motor Sequence Learning,2024.1.5,None,2024-10-16 17h50.33.464475 +0530,
-150,z,27,3,111,3,,,,,336.9842946000281,,336.9693670999841,336.9842946000281,337.98134489997756,337.98134489997756,337.98134489997756,337.98134489997756,337.98134489997756,338.9804529999965,338.9804529999965,339.898171000008,x,0,0.9057522999937646,None,,,,,,,,,,,,,,,727214,001,2024-10-16_17h50.24.138,4.0 Motor Sequence Learning,2024.1.5,None,2024-10-16 17h50.33.464475 +0530,
-50,x,28,0,112,0,,,,,339.9157796999789,,339.90001689997735,339.9157796999789,340.914845900028,340.914845900028,340.914845900028,340.914845900028,340.9290525999968,341.9113548999885,341.9113548999885,343.4787771999836,v,0,1.5623367000371218,None,,,,,,,,,,,,,,,727214,001,2024-10-16_17h50.24.138,4.0 Motor Sequence Learning,2024.1.5,None,2024-10-16 17h50.33.464475 +0530,
150,v,28,1,113,1,,,,,343.4956254999852,,343.4806247000233,343.4956254999852,344.4925079999957,344.4925079999957,344.4925079999957,344.4925079999957,344.4925079999957,345.49149809998926,345.49149809998926,346.6594005000079,z,0,1.165166600025259,None,,,,,,,,,,,,,,,727214,001,2024-10-16_17h50.24.138,4.0 Motor Sequence Learning,2024.1.5,None,2024-10-16 17h50.33.464475 +0530,
50,c,28,2,114,2,,,,,346.67660669999896,,346.661760899995,346.67660669999896,347.67320060002385,347.67320060002385,347.67320060002385,347.67320060002385,347.67320060002385,348.67258559999755,348.67258559999755,349.90628430002835,c,1,1.2166819999692962,None,,,,,,,,,,,,,,,727214,001,2024-10-16_17h50.24.138,4.0 Motor Sequence Learning,2024.1.5,None,2024-10-16 17h50.33.464475 +0530,
-150,z,28,3,115,3,,,,,349.92392710002605,,349.9080189000233,349.92392710002605,350.92144750000443,350.92144750000443,350.92144750000443,350.92144750000443,350.92144750000443,351.91988890001085,351.91988890001085,352.75476789998356,x,0,0.830622699984815,None,,,,,,,,,,,,,,,727214,001,2024-10-16_17h50.24.138,4.0 Motor Sequence Learning,2024.1.5,None,2024-10-16 17h50.33.464475 +0530,
-50,x,29,0,116,0,,,,,352.7718537999899,,352.7566397000337,352.7718537999899,353.7691494000028,353.7691494000028,353.7691494000028,353.7691494000028,353.7691494000028,354.7674259999767,354.7674259999767,357.4005552000017,v,0,2.6208044000086375,None,,,,,,,,,,,,,,,727214,001,2024-10-16_17h50.24.138,4.0 Motor Sequence Learning,2024.1.5,None,2024-10-16 17h50.33.464475 +0530,
150,v,29,1,117,1,,,,,357.41768900002353,,357.40252810000675,357.41768900002353,358.4143972999882,358.4143972999882,358.4143972999882,358.4143972999882,358.4143972999882,359.4137095999904,359.4137095999904,359.9643673999817,z,0,0.5399021999910474,None,,,,,,,,,,,,,,,727214,001,2024-10-16_17h50.24.138,4.0 Motor Sequence Learning,2024.1.5,None,2024-10-16 17h50.33.464475 +0530,
50,c,29,2,118,2,,,,,359.98186060000444,,359.96611610002583,359.98186060000444,360.9652205000166,360.9652205000166,360.9652205000166,360.9652205000166,360.979003800021,361.9782232000143,361.9782232000143,363.312780999986,c,1,1.3245369999785908,None,,,,,,,,,,,,,,,727214,001,2024-10-16_17h50.24.138,4.0 Motor Sequence Learning,2024.1.5,None,2024-10-16 17h50.33.464475 +0530,
-150,z,29,3,119,3,,,,,363.32960870000534,,363.31464130000677,363.32960870000534,364.3263519000029,364.3263519000029,364.3263519000029,364.3263519000029,364.3263519000029,365.325573900016,365.325573900016,366.47609300003387,z,1,1.1413807999924757,None,,,,,,,,,,,,,,,727214,001,2024-10-16_17h50.24.138,4.0 Motor Sequence Learning,2024.1.5,None,2024-10-16 17h50.33.464475 +0530,
-50,x,30,0,120,0,,,,,366.4937382999924,,366.4779697000049,366.4937382999924,367.49070020002546,367.49070020002546,367.49070020002546,367.49070020002546,367.49070020002546,368.4894593000063,368.4894593000063,369.0736490000272,c,0,0.5685998999979347,None,,,,,,,,,,,,,,,727214,001,2024-10-16_17h50.24.138,4.0 Motor Sequence Learning,2024.1.5,None,2024-10-16 17h50.33.464475 +0530,
150,v,30,1,121,1,,,,,369.09150390001014,,369.0755619999836,369.09150390001014,370.0910856000264,370.0910856000264,370.0910856000264,370.0910856000264,370.10481069999514,371.0874474000302,371.0874474000302,371.55534120002994,z,0,0.4598675000015646,None,,,,,,,,,,,,,,,727214,001,2024-10-16_17h50.24.138,4.0 Motor Sequence Learning,2024.1.5,None,2024-10-16 17h50.33.464475 +0530,
50,c,30,2,122,2,,,,,371.5729001000291,,371.55715050001163,371.5729001000291,372.55573030002415,372.55573030002415,372.55573030002415,372.55573030002415,372.56946740002604,373.5684807000216,373.5684807000216,373.91956599999685,c,1,0.34746709995670244,None,,,,,,,,,,,,,,,727214,001,2024-10-16_17h50.24.138,4.0 Motor Sequence Learning,2024.1.5,None,2024-10-16 17h50.33.464475 +0530,
-150,z,30,3,123,3,,,,,373.93754000001354,,373.921077099978,373.93754000001354,374.92060740001034,374.92060740001034,374.92060740001034,374.92060740001034,374.9343717999873,375.933620100026,375.933620100026,378.4328273999854,x,0,2.4861514999647625,None,,,,,,,,,,,,,,,727214,001,2024-10-16_17h50.24.138,4.0 Motor Sequence Learning,2024.1.5,None,2024-10-16 17h50.33.464475 +0530,
-50,x,31,0,124,0,,,,,378.45044729998335,,378.4345537000336,378.45044729998335,379.43322000000626,379.43322000000626,379.43322000000626,379.43322000000626,379.44725259998813,380.4467001000303,380.4467001000303,380.84678840002744,v,0,0.3835774000035599,None,,,,,,,,,,,,,,,727214,001,2024-10-16_17h50.24.138,4.0 Motor Sequence Learning,2024.1.5,None,2024-10-16 17h50.33.464475 +0530,
150,v,31,1,125,1,,,,,380.8652096000151,,380.8487119000056,380.8652096000151,381.8483519000001,381.8483519000001,381.8483519000001,381.8483519000001,381.8617754000006,382.8608628999791,382.8608628999791,384.3785435000318,z,0,1.511182699992787,None,,,,,,,,,,,,,,,727214,001,2024-10-16_17h50.24.138,4.0 Motor Sequence Learning,2024.1.5,None,2024-10-16 17h50.33.464475 +0530,
50,c,31,2,126,2,,,,,384.3958211999852,,384.3805970000103,384.3958211999852,385.39247239998076,385.39247239998076,385.39247239998076,385.39247239998076,385.39247239998076,386.3914891000022,386.3914891000022,388.1753640000243,c,1,1.774078099988401,None,,,,,,,,,,,,,,,727214,001,2024-10-16_17h50.24.138,4.0 Motor Sequence Learning,2024.1.5,None,2024-10-16 17h50.33.464475 +0530,
-150,z,31,3,127,3,,,,,388.1927847000188,,388.1771810000064,388.1927847000188,389.1893292000168,389.1893292000168,389.1893292000168,389.1893292000168,389.1893292000168,390.1886080999975,390.1886080999975,391.8887737999903,z,1,1.6859761999803595,None,,,,,,,,,,,,,,,727214,001,2024-10-16_17h50.24.138,4.0 Motor Sequence Learning,2024.1.5,None,2024-10-16 17h50.33.464475 +0530,
-50,x,32,0,128,0,,,,,391.9059798999806,,391.8907024000073,391.9059798999806,392.90276329999324,392.90276329999324,392.90276329999324,392.90276329999324,392.90276329999324,393.90195289999247,393.90195289999247,394.25311799999326,v,0,0.34684969997033477,None,,,,,,,,,,,,,,,727214,001,2024-10-16_17h50.24.138,4.0 Motor Sequence Learning,2024.1.5,None,2024-10-16 17h50.33.464475 +0530,
150,v,32,1,129,1,,,,,394.27066919999197,,394.25527969998075,394.27066919999197,395.26767660002224,395.26767660002224,395.26767660002224,395.26767660002224,395.26767660002224,396.2666161999805,396.2666161999805,397.2341698000091,z,0,0.9543334000045434,None,,,,,,,,,,,,,,,727214,001,2024-10-16_17h50.24.138,4.0 Motor Sequence Learning,2024.1.5,None,2024-10-16 17h50.33.464475 +0530,
50,c,32,2,130,2,,,,,397.2512534999987,,397.2359254999901,397.2512534999987,398.23441340000136,398.23441340000136,398.23441340000136,398.23441340000136,398.24826299998676,399.2478123999899,399.2478123999899,399.5158306999947,c,1,0.26604620000580326,None,,,,,,,,,,,,,,,727214,001,2024-10-16_17h50.24.138,4.0 Motor Sequence Learning,2024.1.5,None,2024-10-16 17h50.33.464475 +0530,
-150,z,32,3,131,3,,,,,399.53332590003265,,399.51722999999765,399.53332590003265,400.52976679999847,400.52976679999847,400.52976679999847,400.52976679999847,400.52976679999847,401.5294394000084,401.5294394000084,401.9308280000114,x,0,0.3858754000393674,None,,,,,,,,,,,,,,,727214,001,2024-10-16_17h50.24.138,4.0 Motor Sequence Learning,2024.1.5,None,2024-10-16 17h50.33.464475 +0530,
-50,x,33,0,132,0,,,,,401.94767900003353,,401.9321355000138,401.94767900003353,402.93079810001655,402.93079810001655,402.93079810001655,402.93079810001655,402.9443844999769,403.9438069000025,403.9438069000025,404.17928089998895,v,0,0.231550199969206,None,,,,,,,,,,,,,,,727214,001,2024-10-16_17h50.24.138,4.0 Motor Sequence Learning,2024.1.5,None,2024-10-16 17h50.33.464475 +0530,
150,v,33,1,133,1,,,,,404.19674340001075,,404.1810024000006,404.19674340001075,405.19513489998644,405.19513489998644,405.19513489998644,405.19513489998644,405.2092677000328,406.1915811999934,406.1915811999934,406.49293509998824,z,0,0.2929887000354938,None,,,,,,,,,,,,,,,727214,001,2024-10-16_17h50.24.138,4.0 Motor Sequence Learning,2024.1.5,None,2024-10-16 17h50.33.464475 +0530,
50,c,33,2,134,2,,,,,406.51079859997844,,406.49452960002236,406.51079859997844,407.4937184000155,407.4937184000155,407.4937184000155,407.4937184000155,407.5074404000188,408.5067488999921,408.5067488999921,408.90830409998307,c,1,0.3913910999544896,None,,,,,,,,,,,,,,,727214,001,2024-10-16_17h50.24.138,4.0 Motor Sequence Learning,2024.1.5,None,2024-10-16 17h50.33.464475 +0530,
-150,z,33,3,135,3,,,,,408.9255353999906,,408.91065600002185,408.9255353999906,409.92235020000953,409.92235020000953,409.92235020000953,409.92235020000953,409.92235020000953,410.921427400026,410.921427400026,411.05599030002486,x,0,0.12268779997248203,None,,,,,,,,,,,,,,,727214,001,2024-10-16_17h50.24.138,4.0 Motor Sequence Learning,2024.1.5,None,2024-10-16 17h50.33.464475 +0530,
-50,x,34,0,136,0,,,,,411.073592700006,,411.0578109000344,411.073592700006,412.0565125999856,412.0565125999856,412.0565125999856,412.0565125999856,412.0704250999843,413.06974419998005,413.06974419998005,413.17122519999975,v,0,0.09721440001158044,None,,,,,,,,,,,,,,,727214,001,2024-10-16_17h50.24.138,4.0 Motor Sequence Learning,2024.1.5,None,2024-10-16 17h50.33.464475 +0530,
150,v,34,1,137,1,,,,,413.18827480002074,,413.17378299997654,413.18827480002074,414.185319399985,414.185319399985,414.185319399985,414.185319399985,414.185319399985,415.1842977000051,415.1842977000051,415.45276780001586,z,0,0.25506259995745495,None,,,,,,,,,,,,,,,727214,001,2024-10-16_17h50.24.138,4.0 Motor Sequence Learning,2024.1.5,None,2024-10-16 17h50.33.464475 +0530,
50,c,34,2,138,2,,,,,415.4701720000012,,415.4546020000125,415.4701720000012,416.4671657999861,416.4671657999861,416.4671657999861,416.4671657999861,416.4671657999861,417.4664407999953,417.4664407999953,417.6832627999829,c,1,0.2092795000062324,None,,,,,,,,,,,,,,,727214,001,2024-10-16_17h50.24.138,4.0 Motor Sequence Learning,2024.1.5,None,2024-10-16 17h50.33.464475 +0530,
-150,z,34,3,139,3,,,,,417.70170239999425,,417.68528129998595,417.70170239999425,418.6840616000118,418.6840616000118,418.6840616000118,418.6840616000118,418.6983393999981,419.6975151000079,419.6975151000079,419.8654899999965,x,0,0.16559980000602081,None,,,,,,,,,,,,,,,727214,001,2024-10-16_17h50.24.138,4.0 Motor Sequence Learning,2024.1.5,None,2024-10-16 17h50.33.464475 +0530,
-50,x,35,0,140,0,,,,,419.88307029998396,,419.8672249999945,419.88307029998396,420.86576720001176,420.86576720001176,420.86576720001176,420.86576720001176,420.8793523000204,421.8788515999913,421.8788515999913,422.0302125000162,v,0,0.13624390005134046,None,,,,,,,,,,,,,,,727214,001,2024-10-16_17h50.24.138,4.0 Motor Sequence Learning,2024.1.5,None,2024-10-16 17h50.33.464475 +0530,
150,v,35,1,141,1,,,,,422.04809890000615,,422.03240379999625,422.04809890000615,423.04478619998554,423.04478619998554,423.04478619998554,423.04478619998554,423.04478619998554,424.04378210002324,424.04378210002324,424.24504970002454,z,0,0.18848950002575293,None,,,,,,,,,,,,,,,727214,001,2024-10-16_17h50.24.138,4.0 Motor Sequence Learning,2024.1.5,None,2024-10-16 17h50.33.464475 +0530,
50,c,35,2,142,2,,,,,424.26277600001777,,424.24691819999134,424.26277600001777,425.24553940002806,425.24553940002806,425.24553940002806,425.24553940002806,425.2604313000338,426.25881000002846,426.25881000002846,426.31045470002573,c,1,0.03994539997074753,None,,,,,,,,,,,,,,,727214,001,2024-10-16_17h50.24.138,4.0 Motor Sequence Learning,2024.1.5,None,2024-10-16 17h50.33.464475 +0530,
-150,z,35,3,143,3,,,,,426.32767440000316,,426.31318400002783,426.32767440000316,427.3244188000099,427.3244188000099,427.3244188000099,427.3244188000099,427.3244188000099,428.32352259999607,428.32352259999607,428.64168230001815,x,0,0.310428700002376,None,,,,,,,,,,,,,,,727214,001,2024-10-16_17h50.24.138,4.0 Motor Sequence Learning,2024.1.5,None,2024-10-16 17h50.33.464475 +0530,
-50,x,36,0,144,0,,,,,428.65933960000984,,428.64390159997856,428.65933960000984,429.65602759999456,429.65602759999456,429.65602759999456,429.65602759999456,429.65602759999456,430.6549946999876,430.6549946999876,431.3898240000126,v,0,0.7224179999902844,None,,,,,,,,,,,,,,,727214,001,2024-10-16_17h50.24.138,4.0 Motor Sequence Learning,2024.1.5,None,2024-10-16 17h50.33.464475 +0530,
150,v,36,1,145,1,,,,,431.40721079998184,,431.3917430000147,431.40721079998184,432.403784300026,432.403784300026,432.403784300026,432.403784300026,432.403784300026,433.4030475000036,433.4030475000036,433.6877642000327,x,0,0.27399170002900064,None,,,,,,,,,,,,,,,727214,001,2024-10-16_17h50.24.138,4.0 Motor Sequence Learning,2024.1.5,None,2024-10-16 17h50.33.464475 +0530,
50,c,36,2,146,2,,,,,433.7053801000002,,433.6897727000178,433.7053801000002,434.70206119999057,434.70206119999057,434.70206119999057,434.70206119999057,434.70206119999057,435.7011921000085,435.7011921000085,435.9359912999789,c,1,0.23212670005159453,None,,,,,,,,,,,,,,,727214,001,2024-10-16_17h50.24.138,4.0 Motor Sequence Learning,2024.1.5,None,2024-10-16 17h50.33.464475 +0530,
-150,z,36,3,147,3,,,,,435.95384849997936,,435.9379306000192,435.95384849997936,436.9522447999916,436.9522447999916,436.9522447999916,436.9522447999916,436.9661516000051,437.9492090999847,437.9492090999847,438.2002309000236,x,0,0.24701619998086244,None,,,,,,,,,,,,,,,727214,001,2024-10-16_17h50.24.138,4.0 Motor Sequence Learning,2024.1.5,None,2024-10-16 17h50.33.464475 +0530,
-50,x,37,0,148,0,,,,,438.2179241999984,,438.2017362000188,438.2179241999984,439.20103390002623,439.20103390002623,439.20103390002623,439.20103390002623,439.21448740002234,440.2138158000307,440.2138158000307,440.565468100016,v,0,0.34063639998203143,None,,,,,,,,,,,,,,,727214,001,2024-10-16_17h50.24.138,4.0 Motor Sequence Learning,2024.1.5,None,2024-10-16 17h50.33.464475 +0530,
150,v,37,1,149,1,,,,,440.58304170001065,,440.56777429999784,440.58304170001065,441.58210120000876,441.58210120000876,441.58210120000876,441.58210120000876,441.5963464999804,442.5787755000056,442.5787755000056,443.1798462999868,z,0,0.5956535000004806,None,,,,,,,,,,,,,,,727214,001,2024-10-16_17h50.24.138,4.0 Motor Sequence Learning,2024.1.5,None,2024-10-16 17h50.33.464475 +0530,
50,c,37,2,150,2,,,,,443.19735349999974,,443.18163010000717,443.19735349999974,444.19410620001145,444.19410620001145,444.19410620001145,444.19410620001145,444.19410620001145,445.1932087999885,445.1932087999885,445.5445305000176,c,1,0.33586699998704717,None,,,,,,,,,,,,,,,727214,001,2024-10-16_17h50.24.138,4.0 Motor Sequence Learning,2024.1.5,None,2024-10-16 17h50.33.464475 +0530,
-150,z,37,3,151,3,,,,,445.5619582000072,,445.54643300001044,445.5619582000072,446.5450759999803,446.5450759999803,446.5450759999803,446.5450759999803,446.55846939998446,447.5578608000069,447.5578608000069,447.959206700034,x,0,0.39502060000086203,None,,,,,,,,,,,,,,,727214,001,2024-10-16_17h50.24.138,4.0 Motor Sequence Learning,2024.1.5,None,2024-10-16 17h50.33.464475 +0530,
-50,x,38,0,152,0,,,,,447.9769497999805,,447.96138749999227,447.9769497999805,448.97559799999,448.97559799999,448.97559799999,448.97559799999,448.9898259000038,449.972594699997,449.972594699997,450.99004639999475,v,0,1.0023711999529041,None,,,,,,,,,,,,,,,727214,001,2024-10-16_17h50.24.138,4.0 Motor Sequence Learning,2024.1.5,None,2024-10-16 17h50.33.464475 +0530,
150,v,38,1,153,1,,,,,451.0075639000279,,450.99192499998026,451.0075639000279,452.0042211000109,452.0042211000109,452.0042211000109,452.0042211000109,452.0042211000109,453.003145100025,453.003145100025,453.954343600024,z,0,0.935696900007315,None,,,,,,,,,,,,,,,727214,001,2024-10-16_17h50.24.138,4.0 Motor Sequence Learning,2024.1.5,None,2024-10-16 17h50.33.464475 +0530,
50,c,38,2,154,2,,,,,453.97202980000293,,453.95679800002836,453.97202980000293,454.97121779999,454.97121779999,454.97121779999,454.97121779999,454.98523669998394,455.96778529998846,455.96778529998846,456.51889599999413,c,1,0.5357717000297271,None,,,,,,,,,,,,,,,727214,001,2024-10-16_17h50.24.138,4.0 Motor Sequence Learning,2024.1.5,None,2024-10-16 17h50.33.464475 +0530,
-150,z,38,3,155,3,,,,,456.53626680001616,,456.5211058999994,456.53626680001616,457.5330750999856,457.5330750999856,457.5330750999856,457.5330750999856,457.5330750999856,458.5322541000205,458.5322541000205,458.9670479000197,z,1,0.42063980002421886,None,,,,,,,,,,,,,,,727214,001,2024-10-16_17h50.24.138,4.0 Motor Sequence Learning,2024.1.5,None,2024-10-16 17h50.33.464475 +0530,
-50,x,39,0,156,0,,,,,458.98443539999425,,458.9689613999799,458.98443539999425,459.98119439999573,459.98119439999573,459.98119439999573,459.98119439999573,459.98119439999573,460.9799891000148,460.9799891000148,461.3315549999825,c,0,0.33664329996099696,None,,,,,,,,,,,,,,,727214,001,2024-10-16_17h50.24.138,4.0 Motor Sequence Learning,2024.1.5,None,2024-10-16 17h50.33.464475 +0530,
150,v,39,1,157,1,,,,,461.34880300000077,,461.3338296000147,461.34880300000077,462.3456503999769,462.3456503999769,462.3456503999769,462.3456503999769,462.3456503999769,463.34476619999623,463.34476619999623,465.3781295000226,z,0,2.023517800029367,None,,,,,,,,,,,,,,,727214,001,2024-10-16_17h50.24.138,4.0 Motor Sequence Learning,2024.1.5,None,2024-10-16 17h50.33.464475 +0530,
50,c,39,2,158,2,,,,,465.3952580000041,,465.3800762000028,465.3952580000041,466.3923956999788,466.3923956999788,466.3923956999788,466.3923956999788,466.3923956999788,467.3916046000086,467.3916046000086,468.9576736000017,z,0,1.549242300039623,None,,,,,,,,,,,,,,,727214,001,2024-10-16_17h50.24.138,4.0 Motor Sequence Learning,2024.1.5,None,2024-10-16 17h50.33.464475 +0530,
-150,z,39,3,159,3,,,,,468.9761838000268,,468.95931589999236,468.9761838000268,469.959015200031,469.959015200031,469.959015200031,469.959015200031,469.9729307999951,470.97209060000023,470.97209060000023,471.323034800007,x,0,0.33695979998447,None,,,,,,,,,,,,,,,727214,001,2024-10-16_17h50.24.138,4.0 Motor Sequence Learning,2024.1.5,None,2024-10-16 17h50.33.464475 +0530,
-50,x,40,0,160,0,,,,,471.34048680000706,,471.3249130999902,471.34048680000706,472.3238094000262,472.3238094000262,472.3238094000262,472.3238094000262,472.33743489999324,473.33644290000666,473.33644290000666,474.77048220002325,v,0,1.4168121999828145,None,,,,,,,,,,,,,,,727214,001,2024-10-16_17h50.24.138,4.0 Motor Sequence Learning,2024.1.5,None,2024-10-16 17h50.33.464475 +0530,
150,v,40,1,161,1,,,,,474.78764739999315,,474.77254859998357,474.78764739999315,475.7846741999965,475.7846741999965,475.7846741999965,475.7846741999965,475.7846741999965,476.78380169998854,476.78380169998854,479.7830794000183,z,0,2.988491000025533,None,,,,,,,,,,,,,,,727214,001,2024-10-16_17h50.24.138,4.0 Motor Sequence Learning,2024.1.5,None,2024-10-16 17h50.33.464475 +0530,
50,c,40,2,162,2,,,,,479.800817499985,,479.78491190000204,479.800817499985,480.7831097000162,480.7831097000162,480.7831097000162,480.7831097000162,480.813995399978,481.7964944000123,481.7964944000123,482.8637161999941,c,1,1.049895000003744,None,,,,,,,,,,,,,,,727214,001,2024-10-16_17h50.24.138,4.0 Motor Sequence Learning,2024.1.5,None,2024-10-16 17h50.33.464475 +0530,
-150,z,40,3,163,3,,,,,482.88131149997935,,482.86612840002635,482.88131149997935,483.8780230000266,483.8780230000266,483.8780230000266,483.8780230000266,483.8780230000266,484.8770739000174,484.8770739000174,487.7595338000101,x,0,2.8765216000028886,None,,,,,,,,,,,,,,,727214,001,2024-10-16_17h50.24.138,4.0 Motor Sequence Learning,2024.1.5,None,2024-10-16 17h50.33.464475 +0530,
-50,x,41,0,164,0,,,,,487.7772529000067,,487.7614273999934,487.7772529000067,488.7601647999836,488.7601647999836,488.7601647999836,488.7601647999836,488.7739757000236,489.7731656000251,489.7731656000251,490.3741945999791,v,0,0.5849734999937937,None,,,,,,,,,,,,,,,727214,001,2024-10-16_17h50.24.138,4.0 Motor Sequence Learning,2024.1.5,None,2024-10-16 17h50.33.464475 +0530,
150,v,41,1,165,1,,,,,490.3920311999973,,490.37601980002364,490.3920311999973,491.3742255999823,491.3742255999823,491.3742255999823,491.3742255999823,491.40534639998805,492.38785930001177,492.38785930001177,498.3842130000121,z,0,5.98987449996639,None,,,,,,,,,,,,,,,727214,001,2024-10-16_17h50.24.138,4.0 Motor Sequence Learning,2024.1.5,None,2024-10-16 17h50.33.464475 +0530,
50,c,41,2,166,2,,,,,498.40199230000144,,498.3863089000224,498.40199230000144,499.38459470000817,499.38459470000817,499.38459470000817,499.38459470000817,499.3987467000261,500.3977972000139,500.3977972000139,501.4482141000335,c,1,1.0462849999894388,None,,,,,,,,,,,,,,,727214,001,2024-10-16_17h50.24.138,4.0 Motor Sequence Learning,2024.1.5,None,2024-10-16 17h50.33.464475 +0530,
-150,z,41,3,167,3,,,,,501.4656629000092,,501.44990369997686,501.4656629000092,502.4487932000193,502.4487932000193,502.4487932000193,502.4487932000193,502.46265479997965,503.4617121000192,503.4617121000192,504.69552200002363,x,0,1.2230035999673419,None,,,,,,,,,,,,,,,727214,001,2024-10-16_17h50.24.138,4.0 Motor Sequence Learning,2024.1.5,None,2024-10-16 17h50.33.464475 +0530,
-50,x,42,0,168,0,,,,,504.7134506999864,,504.6972991999937,504.7134506999864,505.6963306000107,505.6963306000107,505.6963306000107,505.6963306000107,505.7099033999839,506.7090126000112,506.7090126000112,507.6432012000005,v,0,0.9184400000376627,None,,,,,,,,,,,,,,,727214,001,2024-10-16_17h50.24.138,4.0 Motor Sequence Learning,2024.1.5,None,2024-10-16 17h50.33.464475 +0530,
150,v,42,1,169,1,,,,,507.6605608999962,,507.64500120002776,507.6605608999962,508.6438671000069,508.6438671000069,508.6438671000069,508.6438671000069,508.65762840001844,509.656749900023,509.656749900023,510.5409605000168,z,0,0.8820025000022724,None,,,,,,,,,,,,,,,727214,001,2024-10-16_17h50.24.138,4.0 Motor Sequence Learning,2024.1.5,None,2024-10-16 17h50.33.464475 +0530,
50,c,42,2,170,2,,,,,510.5581286000088,,510.542671800009,510.5581286000088,511.54134460003115,511.54134460003115,511.54134460003115,511.54134460003115,511.55511070002103,512.5544179999852,512.5544179999852,513.9053240999929,c,1,1.3369743999792263,None,,,,,,,,,,,,,,,727214,001,2024-10-16_17h50.24.138,4.0 Motor Sequence Learning,2024.1.5,None,2024-10-16 17h50.33.464475 +0530,
-150,z,42,3,171,3,,,,,513.9227678999887,,513.9075469999807,513.9227678999887,514.9220272999955,514.9220272999955,514.9220272999955,514.9220272999955,514.9359346000128,515.918648299994,515.918648299994,519.2173082000227,x,0,3.284138899995014,None,,,,,,,,,,,,,,,727214,001,2024-10-16_17h50.24.138,4.0 Motor Sequence Learning,2024.1.5,None,2024-10-16 17h50.33.464475 +0530,
-50,x,43,0,172,0,,,,,519.2351208000327,,519.219181500026,519.2351208000327,520.2315779000055,520.2315779000055,520.2315779000055,520.2315779000055,520.2315779000055,521.2308248000336,521.2308248000336,524.4462388000102,v,0,3.2084466999513097,None,,,,,,,,,,,,,,,727214,001,2024-10-16_17h50.24.138,4.0 Motor Sequence Learning,2024.1.5,None,2024-10-16 17h50.33.464475 +0530,
150,v,43,1,173,1,,,,,524.4641424000147,,524.4482388999895,524.4641424000147,525.4463780000224,525.4463780000224,525.4463780000224,525.4463780000224,525.4772532000206,526.4597970999894,526.4597970999894,529.5417879000306,z,0,3.0787851000204682,None,,,,,,,,,,,,,,,727214,001,2024-10-16_17h50.24.138,4.0 Motor Sequence Learning,2024.1.5,None,2024-10-16 17h50.33.464475 +0530,
50,c,43,2,174,2,,,,,529.5597855999949,,529.5438157999888,529.5597855999949,530.5422891000053,530.5422891000053,530.5422891000053,530.5422891000053,530.5564276999794,531.5557368000154,531.5557368000154,532.756002900016,c,1,1.1826292999903671,None,,,,,,,,,,,,,,,727214,001,2024-10-16_17h50.24.138,4.0 Motor Sequence Learning,2024.1.5,None,2024-10-16 17h50.33.464475 +0530,
-150,z,43,3,175,3,,,,,532.7734429999837,,532.7580632999889,532.7734429999837,533.770592099987,533.770592099987,533.770592099987,533.770592099987,533.770592099987,534.7696113000275,534.7696113000275,535.9864174000104,x,0,1.2001009000232443,None,,,,,,,,,,,,,,,727214,001,2024-10-16_17h50.24.138,4.0 Motor Sequence Learning,2024.1.5,None,2024-10-16 17h50.33.464475 +0530,
-50,x,44,0,176,0,,,,,536.0046079999884,,535.9883526000194,536.0046079999884,537.0037353999796,537.0037353999796,537.0037353999796,537.0037353999796,537.0178677000222,538.0003639999777,538.0003639999777,541.266183300002,v,0,3.250702999997884,None,,,,,,,,,,,,,,,727214,001,2024-10-16_17h50.24.138,4.0 Motor Sequence Learning,2024.1.5,None,2024-10-16 17h50.33.464475 +0530,
150,v,44,1,177,1,,,,,541.2835268999916,,541.2682423000224,541.2835268999916,542.280004100001,542.280004100001,542.280004100001,542.280004100001,542.280004100001,543.2792059999774,543.2792059999774,546.477810100012,z,0,3.187265699962154,None,,,,,,,,,,,,,,,727214,001,2024-10-16_17h50.24.138,4.0 Motor Sequence Learning,2024.1.5,None,2024-10-16 17h50.33.464475 +0530,
50,c,44,2,178,2,,,,,546.4956090999767,,546.4796783999773,546.4956090999767,547.4783494999865,547.4783494999865,547.4783494999865,547.4783494999865,547.4925410000142,548.4917011000216,548.4917011000216,550.6749825000297,c,1,2.1663843999849632,None,,,,,,,,,,,,,,,727214,001,2024-10-16_17h50.24.138,4.0 Motor Sequence Learning,2024.1.5,None,2024-10-16 17h50.33.464475 +0530,
-150,z,44,3,179,3,,,,,550.692560800002,,550.6768935000291,550.692560800002,551.6915377000114,551.6915377000114,551.6915377000114,551.6915377000114,551.7055063000298,552.6883529000334,552.6883529000334,554.1215912000043,x,0,1.4221938999835402,None,,,,,,,,,,,,,,,727214,001,2024-10-16_17h50.24.138,4.0 Motor Sequence Learning,2024.1.5,None,2024-10-16 17h50.33.464475 +0530,
-50,x,45,0,180,0,,,,,554.13917520002,,554.1234548999928,554.13917520002,555.1220653000055,555.1220653000055,555.1220653000055,555.1220653000055,555.1363158000167,556.1352044999949,556.1352044999949,557.4688966000103,v,0,1.3207281000213698,None,,,,,,,,,,,,,,,727214,001,2024-10-16_17h50.24.138,4.0 Motor Sequence Learning,2024.1.5,None,2024-10-16 17h50.33.464475 +0530,
150,v,45,1,181,1,,,,,557.4866541000083,,557.4707796000293,557.4866541000083,558.4692078999942,558.4692078999942,558.4692078999942,558.4692078999942,558.4835135000176,559.4826972000301,559.4826972000301,560.7996464000316,z,0,1.2993536000140011,None,,,,,,,,,,,,,,,727214,001,2024-10-16_17h50.24.138,4.0 Motor Sequence Learning,2024.1.5,None,2024-10-16 17h50.33.464475 +0530,
50,c,45,2,182,2,,,,,560.8171934999991,,560.8019762000185,560.8171934999991,561.8137847000035,561.8137847000035,561.8137847000035,561.8137847000035,561.8137847000035,562.8129592000041,562.8129592000041,564.0472059000167,c,1,1.2197365000029095,None,,,,,,,,,,,,,,,727214,001,2024-10-16_17h50.24.138,4.0 Motor Sequence Learning,2024.1.5,None,2024-10-16 17h50.33.464475 +0530,
-150,z,45,3,183,3,,,,,564.0642390000285,,564.0492321000202,564.0642390000285,565.0608709999942,565.0608709999942,565.0608709999942,565.0608709999942,565.0608709999942,566.0602611000068,566.0602611000068,567.0109722000198,x,0,0.9472682999912649,None,,,,,,,,,,,,,,,727214,001,2024-10-16_17h50.24.138,4.0 Motor Sequence Learning,2024.1.5,None,2024-10-16 17h50.33.464475 +0530,
-50,x,46,0,184,0,,,,,567.0289918000344,,567.0126770000206,567.0289918000344,568.0113916000118,568.0113916000118,568.0113916000118,568.0113916000118,568.025622199988,569.0246714000241,569.0246714000241,572.9401380000054,v,0,3.912511700007599,None,,,,,,,,,,,,,,,727214,001,2024-10-16_17h50.24.138,4.0 Motor Sequence Learning,2024.1.5,None,2024-10-16 17h50.33.464475 +0530,
150,v,46,1,185,1,,,,,572.9572829999961,,572.9420488000032,572.9572829999961,573.9539869999862,573.9539869999862,573.9539869999862,573.9539869999862,573.9539869999862,574.9529880000046,574.9529880000046,576.7532381999772,z,0,1.7866667000344023,None,,,,,,,,,,,,,,,727214,001,2024-10-16_17h50.24.138,4.0 Motor Sequence Learning,2024.1.5,None,2024-10-16 17h50.33.464475 +0530,
50,c,46,2,186,2,,,,,576.7707697000005,,576.7550491000293,576.7707697000005,577.7533219000325,577.7533219000325,577.7533219000325,577.7533219000325,577.7673922000104,578.7667287000222,578.7667287000222,580.1671755000134,c,1,1.3901442000060342,None,,,,,,,,,,,,,,,727214,001,2024-10-16_17h50.24.138,4.0 Motor Sequence Learning,2024.1.5,None,2024-10-16 17h50.33.464475 +0530,
-150,z,46,3,187,3,,,,,580.1848561000079,,580.1696902000112,580.1848561000079,581.1814059999888,581.1814059999888,581.1814059999888,581.1814059999888,581.1814059999888,582.1806406999822,582.1806406999822,583.1643992000027,x,0,0.9763226000359282,None,,,,,,,,,,,,,,,727214,001,2024-10-16_17h50.24.138,4.0 Motor Sequence Learning,2024.1.5,None,2024-10-16 17h50.33.464475 +0530,
-50,x,47,0,188,0,,,,,583.1818362000049,,583.1661544999806,583.1818362000049,584.1650988000329,584.1650988000329,584.1650988000329,584.1650988000329,584.1789509999799,585.1777802000288,585.1777802000288,586.7781763999956,v,0,1.5915832000318915,None,,,,,,,,,,,,,,,727214,001,2024-10-16_17h50.24.138,4.0 Motor Sequence Learning,2024.1.5,None,2024-10-16 17h50.33.464475 +0530,
150,v,47,1,189,1,,,,,586.7954894999857,,586.7800254999893,586.7954894999857,587.7787710999837,587.7787710999837,587.7787710999837,587.7787710999837,587.7926320999977,588.7916650000261,588.7916650000261,589.6432967000292,z,0,0.8494181999703869,None,,,,,,,,,,,,,,,727214,001,2024-10-16_17h50.24.138,4.0 Motor Sequence Learning,2024.1.5,None,2024-10-16 17h50.33.464475 +0530,
50,c,47,2,190,2,,,,,589.6604753999854,,589.6452131000115,589.6604753999854,590.6596383000142,590.6596383000142,590.6596383000142,590.6596383000142,590.6737284000264,591.6563621999812,591.6563621999812,592.9234288000152,c,1,1.2551556000253186,None,,,,,,,,,,,,,,,727214,001,2024-10-16_17h50.24.138,4.0 Motor Sequence Learning,2024.1.5,None,2024-10-16 17h50.33.464475 +0530,
-150,z,47,3,191,3,,,,,592.9404658999993,,592.9253527999972,592.9404658999993,593.9375133999856,593.9375133999856,593.9375133999856,593.9375133999856,593.9375133999856,594.9365569999791,594.9365569999791,601.1671553000342,x,0,6.228711400006432,None,,,,,,,,,,,,,,,727214,001,2024-10-16_17h50.24.138,4.0 Motor Sequence Learning,2024.1.5,None,2024-10-16 17h50.33.464475 +0530,
-50,x,48,0,192,0,,,,,601.1838486000197,,601.169427899993,601.1838486000197,602.1808134000166,602.1808134000166,602.1808134000166,602.1808134000166,602.1808134000166,603.1796856999863,603.1796856999863,607.0278801000095,b,0,3.8400702999788336,None,,,,,,,,,,,,,,,727214,001,2024-10-16_17h50.24.138,4.0 Motor Sequence Learning,2024.1.5,None,2024-10-16 17h50.33.464475 +0530,
150,v,48,1,193,1,,,,,607.0459090999793,,607.029345899995,607.0459090999793,608.0284271999844,608.0284271999844,608.0284271999844,608.0284271999844,608.0427094000042,609.0419715000317,609.0419715000317,610.1757632999797,z,0,1.121845499961637,None,,,,,,,,,,,,,,,727214,001,2024-10-16_17h50.24.138,4.0 Motor Sequence Learning,2024.1.5,None,2024-10-16 17h50.33.464475 +0530,
50,c,48,2,194,2,,,,,610.1934084999957,,610.1772445000242,610.1934084999957,611.1756988000125,611.1756988000125,611.1756988000125,611.1756988000125,611.2066841000342,612.189364299993,612.189364299993,613.7060985999997,c,1,1.5112586000468582,None,,,,,,,,,,,,,,,727214,001,2024-10-16_17h50.24.138,4.0 Motor Sequence Learning,2024.1.5,None,2024-10-16 17h50.33.464475 +0530,
-150,z,48,3,195,3,,,,,613.7234709000331,,613.7079377000337,613.7234709000331,614.7065578000038,614.7065578000038,614.7065578000038,614.7065578000038,614.7204252000083,615.7193660999765,615.7193660999765,618.0857926000026,x,0,2.3629415000323206,None,,,,,,,,,,,,,,,727214,001,2024-10-16_17h50.24.138,4.0 Motor Sequence Learning,2024.1.5,None,2024-10-16 17h50.33.464475 +0530,
-50,x,49,0,196,0,,,,,618.103299600014,,618.0876549999812,618.103299600014,619.0863241000334,619.0863241000334,619.0863241000334,619.0863241000334,619.1003107000142,620.0996519000037,620.0996519000037,621.2168623000034,v,0,1.1138166000018828,None,,,,,,,,,,,,,,,727214,001,2024-10-16_17h50.24.138,4.0 Motor Sequence Learning,2024.1.5,None,2024-10-16 17h50.33.464475 +0530,
150,v,49,1,197,1,,,,,621.2344765000162,,621.2186668000068,621.2344765000162,622.2312655000133,622.2312655000133,622.2312655000133,622.2312655000133,622.2312655000133,623.2303059999831,623.2303059999831,624.7303812000318,z,0,1.485072500014212,None,,,,,,,,,,,,,,,727214,001,2024-10-16_17h50.24.138,4.0 Motor Sequence Learning,2024.1.5,None,2024-10-16 17h50.33.464475 +0530,
50,c,49,2,198,2,,,,,624.7479728999897,,624.7320257999818,624.7479728999897,625.7449101000093,625.7449101000093,625.7449101000093,625.7449101000093,625.7449101000093,626.7440358999884,626.7440358999884,627.9113458999782,c,1,1.1613908999715932,None,,,,,,,,,,,,,,,727214,001,2024-10-16_17h50.24.138,4.0 Motor Sequence Learning,2024.1.5,None,2024-10-16 17h50.33.464475 +0530,
-150,z,49,3,199,3,,,,,627.9288220999879,,627.9129590999801,627.9288220999879,628.9113089999883,628.9113089999883,628.9113089999883,628.9113089999883,628.9256320000277,629.9250012999983,629.9250012999983,631.2585581000312,x,0,1.3262665999936871,None,,,,,,,,,,,,,,,727214,001,2024-10-16_17h50.24.138,4.0 Motor Sequence Learning,2024.1.5,None,2024-10-16 17h50.33.464475 +0530,
-150,z,,,,,0,0,0,3,631.2735044999863,,,,,,,,,,,,,,,,631.2671776000061,631.2735044999863,632.2727975000162,632.2727975000162,632.2727975000162,632.2727975000162,632.2727975000162,633.2717884000158,633.2717884000158,635.0228512000176,x,0,1.748511099955067,None,727214,001,2024-10-16_17h50.24.138,4.0 Motor Sequence Learning,2024.1.5,None,2024-10-16 17h50.33.464475 +0530,
-150,z,,,,,0,1,1,3,635.0370793000329,,,,,,,,,,,,,,,,635.0261877999874,635.0370793000329,636.0363706999924,636.0363706999924,636.0363706999924,636.0363706999924,636.0363706999924,637.035681999987,637.035681999987,638.0361734000035,x,0,0.9841541000059806,None,727214,001,2024-10-16_17h50.24.138,4.0 Motor Sequence Learning,2024.1.5,None,2024-10-16 17h50.33.464475 +0530,
-150,z,,,,,0,2,2,3,638.0513801000197,,,,,,,,,,,,,,,,638.0383466000203,638.0513801000197,639.0505050999927,639.0505050999927,639.0505050999927,639.0505050999927,639.0505050999927,640.0495974000078,640.0495974000078,640.8840552000329,x,0,0.8328645000001416,None,727214,001,2024-10-16_17h50.24.138,4.0 Motor Sequence Learning,2024.1.5,None,2024-10-16 17h50.33.464475 +0530,
-50,x,,,,,0,3,3,0,640.8987777000293,,,,,,,,,,,,,,,,640.885838599992,640.8987777000293,641.8980744000291,641.8980744000291,641.8980744000291,641.8980744000291,641.8980744000291,642.8971175000188,642.8971175000188,645.3307664000313,v,0,2.416793600015808,None,727214,001,2024-10-16_17h50.24.138,4.0 Motor Sequence Learning,2024.1.5,None,2024-10-16 17h50.33.464475 +0530,
50,c,,,,,1,0,4,2,645.3453963000211,,,,,,,,,,,,,,,,645.3326404999825,645.3453963000211,646.3443740999792,646.3443740999792,646.3443740999792,646.3443740999792,646.3443740999792,647.3434919000138,647.3434919000138,651.7418059000047,c,1,4.3965671000187285,None,727214,001,2024-10-16_17h50.24.138,4.0 Motor Sequence Learning,2024.1.5,None,2024-10-16 17h50.33.464475 +0530,
-50,x,,,,,1,1,5,0,651.7567377000232,,,,,,,,,,,,,,,,651.7436824000324,651.7567377000232,652.7560151999933,652.7560151999933,652.7560151999933,652.7560151999933,652.7560151999933,653.755298300006,653.755298300006,655.1555854000035,v,0,1.3945371999870986,None,727214,001,2024-10-16_17h50.24.138,4.0 Motor Sequence Learning,2024.1.5,None,2024-10-16 17h50.33.464475 +0530,
-50,x,,,,,1,2,6,0,655.170621600002,,,,,,,,,,,,,,,,655.1575538000325,655.170621600002,656.1699551999918,656.1699551999918,656.1699551999918,656.1699551999918,656.1699551999918,657.1691449999926,657.1691449999926,658.6526890000096,v,0,1.4807833000086248,None,727214,001,2024-10-16_17h50.24.138,4.0 Motor Sequence Learning,2024.1.5,None,2024-10-16 17h50.33.464475 +0530,
-150,z,,,,,1,3,7,3,658.6678319000057,,,,,,,,,,,,,,,,658.6545531000011,658.6678319000057,659.6669861000264,659.6669861000264,659.6669861000264,659.6669861000264,659.6669861000264,660.6661372000235,660.6661372000235,663.7319081000169,z,1,3.054974900034722,None,727214,001,2024-10-16_17h50.24.138,4.0 Motor Sequence Learning,2024.1.5,None,2024-10-16 17h50.33.464475 +0530,
-50,x,,,,,2,0,8,0,663.7469765000278,,,,,,,,,,,,,,,,663.7338523999788,663.7469765000278,664.746103100013,664.746103100013,664.746103100013,664.746103100013,664.746103100013,665.7455087000271,665.7455087000271,667.3123900999781,v,0,1.559959699981846,None,727214,001,2024-10-16_17h50.24.138,4.0 Motor Sequence Learning,2024.1.5,None,2024-10-16 17h50.33.464475 +0530,
-50,x,,,,,2,1,9,0,667.3271960000275,,,,,,,,,,,,,,,,667.3141928000259,667.3271960000275,668.3264247000334,668.3264247000334,668.3264247000334,668.3264247000334,668.3264247000334,669.3255027999985,669.3255027999985,670.4761440000148,v,0,1.1484897999907844,None,727214,001,2024-10-16_17h50.24.138,4.0 Motor Sequence Learning,2024.1.5,None,2024-10-16 17h50.33.464475 +0530,
50,c,,,,,2,2,10,2,670.4913124000304,,,,,,,,,,,,,,,,670.47806210001,670.4913124000304,671.4906293000095,671.4906293000095,671.4906293000095,671.4906293000095,671.4906293000095,672.4895816000062,672.4895816000062,676.9210003000335,c,1,4.427712999982759,None,727214,001,2024-10-16_17h50.24.138,4.0 Motor Sequence Learning,2024.1.5,None,2024-10-16 17h50.33.464475 +0530,
-150,z,,,,,2,3,11,3,676.9362065999885,,,,,,,,,,,,,,,,676.9230420999811,676.9362065999885,677.9352875000332,677.9352875000332,677.9352875000332,677.9352875000332,677.9352875000332,678.9344407999888,678.9344407999888,679.9017660000245,z,1,0.9555539999855682,None,727214,001,2024-10-16_17h50.24.138,4.0 Motor Sequence Learning,2024.1.5,None,2024-10-16 17h50.33.464475 +0530,
50,c,,,,,3,0,12,2,679.9167095000157,,,,,,,,,,,,,,,,679.9036618000246,679.9167095000157,680.9159169999766,680.9159169999766,680.9159169999766,680.9159169999766,680.9159169999766,681.915083400032,681.915083400032,683.0993647000287,c,1,1.168862100050319,None,727214,001,2024-10-16_17h50.24.138,4.0 Motor Sequence Learning,2024.1.5,None,2024-10-16 17h50.33.464475 +0530,
-50,x,,,,,3,1,13,0,683.1142695000162,,,,,,,,,,,,,,,,683.1012259999989,683.1142695000162,684.1134848999791,684.1134848999791,684.1134848999791,684.1134848999791,684.1134848999791,685.1125104000093,685.1125104000093,686.2626596000046,v,0,1.1467482000007294,None,727214,001,2024-10-16_17h50.24.138,4.0 Motor Sequence Learning,2024.1.5,None,2024-10-16 17h50.33.464475 +0530,
-150,z,,,,,3,2,14,3,686.278531900025,,,,,,,,,,,,,,,,686.2644041000167,686.278531900025,687.2942285999889,687.2778563000029,687.2778563000029,687.2778563000029,687.2778563000029,688.2767323000007,688.2767323000007,689.3107771999785,x,0,1.021723399986513,None,727214,001,2024-10-16_17h50.24.138,4.0 Motor Sequence Learning,2024.1.5,None,2024-10-16 17h50.33.464475 +0530,
-50,x,,,,,3,3,15,0,689.3261600999977,,,,,,,,,,,,,,,,689.3127181000309,689.3261600999977,690.3418409000151,690.3252268999931,690.3252268999931,690.3252268999931,690.3252268999931,691.3241651999997,691.3241651999997,692.4246653000009,v,0,1.0839377000229433,None,727214,001,2024-10-16_17h50.24.138,4.0 Motor Sequence Learning,2024.1.5,None,2024-10-16 17h50.33.464475 +0530,
150,v,,,,,4,0,16,1,692.4402844000142,,,,,,,,,,,,,,,,692.4267123999889,692.4402844000142,693.4392736000009,693.4392736000009,693.4392736000009,693.4392736000009,693.4392736000009,694.4383457999793,694.4383457999793,695.8218578000087,z,0,1.367921800003387,None,727214,001,2024-10-16_17h50.24.138,4.0 Motor Sequence Learning,2024.1.5,None,2024-10-16 17h50.33.464475 +0530,
-50,x,,,,,4,1,17,0,695.8372002000106,,,,,,,,,,,,,,,,695.8238069000072,695.8372002000106,696.8365469999844,696.8365469999844,696.8365469999844,696.8365469999844,696.8365469999844,697.8354362000246,697.8354362000246,698.7533069999772,v,0,0.9086709999828599,None,727214,001,2024-10-16_17h50.24.138,4.0 Motor Sequence Learning,2024.1.5,None,2024-10-16 17h50.33.464475 +0530,
-150,z,,,,,4,2,18,3,698.7683849000023,,,,,,,,,,,,,,,,698.7552259999793,698.7683849000023,699.7841059999773,699.7674301000079,699.7674301000079,699.7674301000079,699.7674301000079,700.7665331999888,700.7665331999888,702.2170592999901,x,0,1.4402044999878854,None,727214,001,2024-10-16_17h50.24.138,4.0 Motor Sequence Learning,2024.1.5,None,2024-10-16 17h50.33.464475 +0530,
150,v,,,,,4,3,19,1,702.2319733999902,,,,,,,,,,,,,,,,702.2194038000307,702.2319733999902,703.2312171999947,703.2312171999947,703.2312171999947,703.2312171999947,703.2312171999947,704.230348800018,704.230348800018,705.1811234999914,z,0,0.949020300002303,None,727214,001,2024-10-16_17h50.24.138,4.0 Motor Sequence Learning,2024.1.5,None,2024-10-16 17h50.33.464475 +0530,
150,v,,,,,5,0,20,1,705.1959776000003,,,,,,,,,,,,,,,,705.1832232000306,705.1959776000003,706.1951783000259,706.1951783000259,706.1951783000259,706.1951783000259,706.1951783000259,707.1942969000083,707.1942969000083,708.3286250000237,z,0,1.1185626999940723,None,727214,001,2024-10-16_17h50.24.138,4.0 Motor Sequence Learning,2024.1.5,None,2024-10-16 17h50.33.464475 +0530,
50,c,,,,,5,1,21,2,708.3435238000238,,,,,,,,,,,,,,,,708.3304736000136,708.3435238000238,709.3426480999915,709.3426480999915,709.3426480999915,709.3426480999915,709.3426480999915,710.3418588999775,710.3418588999775,711.3091751000029,c,1,0.9535515000461601,None,727214,001,2024-10-16_17h50.24.138,4.0 Motor Sequence Learning,2024.1.5,None,2024-10-16 17h50.33.464475 +0530,
50,c,,,,,5,2,22,2,711.3245728000184,,,,,,,,,,,,,,,,711.3110375999822,711.3245728000184,712.3238444000017,712.3238444000017,712.3238444000017,712.3238444000017,712.3238444000017,713.3227304000175,713.3227304000175,714.1905629999819,c,1,0.8602317000040784,None,727214,001,2024-10-16_17h50.24.138,4.0 Motor Sequence Learning,2024.1.5,None,2024-10-16 17h50.33.464475 +0530,
50,c,,,,,5,3,23,2,714.2054624999873,,,,,,,,,,,,,,,,714.1921301999828,714.2054624999873,715.2048188000335,715.2048188000335,715.2048188000335,715.2048188000335,715.2048188000335,716.2037425999879,716.2037425999879,717.0874445000081,c,1,0.8713902000454254,None,727214,001,2024-10-16_17h50.24.138,4.0 Motor Sequence Learning,2024.1.5,None,2024-10-16 17h50.33.464475 +0530,
50,c,,,,,6,0,24,2,717.1031735999859,,,,,,,,,,,,,,,,717.0893627000041,717.1031735999859,718.1022426999989,718.1022426999989,718.1022426999989,718.1022426999989,718.1022426999989,719.1014477999997,719.1014477999997,719.8357240000041,c,1,0.7244283999898471,None,727214,001,2024-10-16_17h50.24.138,4.0 Motor Sequence Learning,2024.1.5,None,2024-10-16 17h50.33.464475 +0530,
150,v,,,,,6,1,25,1,719.8508250000305,,,,,,,,,,,,,,,,719.8378253999981,719.8508250000305,720.85004260001,720.85004260001,720.85004260001,720.85004260001,720.85004260001,721.8493523999932,721.8493523999932,722.7164398999885,z,0,0.8590860000113025,None,727214,001,2024-10-16_17h50.24.138,4.0 Motor Sequence Learning,2024.1.5,None,2024-10-16 17h50.33.464475 +0530,
-50,x,,,,,6,2,26,0,722.7317412000266,,,,,,,,,,,,,,,,722.7182571000303,722.7317412000266,723.7309516000096,723.7309516000096,723.7309516000096,723.7309516000096,723.7309516000096,724.7299601000268,724.7299601000268,726.5299148000195,v,0,1.7874111999990419,None,727214,001,2024-10-16_17h50.24.138,4.0 Motor Sequence Learning,2024.1.5,None,2024-10-16 17h50.33.464475 +0530,
150,v,,,,,6,3,27,1,726.5453156000003,,,,,,,,,,,,,,,,726.5321378000081,726.5453156000003,727.5445460000192,727.5445460000192,727.5445460000192,727.5445460000192,727.5445460000192,728.5436926999828,728.5436926999828,729.4281720999861,z,0,0.8815562999807298,None,727214,001,2024-10-16_17h50.24.138,4.0 Motor Sequence Learning,2024.1.5,None,2024-10-16 17h50.33.464475 +0530,
50,c,,,,,7,0,28,2,729.4431653000065,,,,,,,,,,,,,,,,729.4299927999964,729.4431653000065,730.4587537000189,730.4421842999873,730.4421842999873,730.4421842999873,730.4421842999873,731.441336799995,731.441336799995,732.2751007000334,c,1,0.8309197999769822,None,727214,001,2024-10-16_17h50.24.138,4.0 Motor Sequence Learning,2024.1.5,None,2024-10-16 17h50.33.464475 +0530,
150,v,,,,,7,1,29,1,732.2905535000027,,,,,,,,,,,,,,,,732.2768600999843,732.2905535000027,733.2898106999928,733.2898106999928,733.2898106999928,733.2898106999928,733.2898106999928,734.2887890000129,734.2887890000129,735.3225481000263,z,0,1.0211607000092044,None,727214,001,2024-10-16_17h50.24.138,4.0 Motor Sequence Learning,2024.1.5,None,2024-10-16 17h50.33.464475 +0530,
50,c,,,,,7,2,30,2,735.3381982999854,,,,,,,,,,,,,,,,735.3243658000138,735.3381982999854,736.3374570999877,736.3374570999877,736.3374570999877,736.3374570999877,736.3374570999877,737.3365996999783,737.3365996999783,739.7695845999988,c,1,2.4177838999894448,None,727214,001,2024-10-16_17h50.24.138,4.0 Motor Sequence Learning,2024.1.5,None,2024-10-16 17h50.33.464475 +0530,
150,v,,,,,7,3,31,1,739.7845034999773,,,,,,,,,,,,,,,,739.7718403000035,739.7845034999773,740.7836402999819,740.7836402999819,740.7836402999819,740.7836402999819,740.7836402999819,741.7829798000166,741.7829798000166,742.583721700008,z,0,0.7876498000114225,None,727214,001,2024-10-16_17h50.24.138,4.0 Motor Sequence Learning,2024.1.5,None,2024-10-16 17h50.33.464475 +0530,
150,v,,,,,8,0,32,1,742.5989687999827,,,,,,,,,,,,,,,,742.5855472999974,742.5989687999827,743.5980076999986,743.5980076999986,743.5980076999986,743.5980076999986,743.5980076999986,744.5973337999894,744.5973337999894,749.2287549999892,z,0,4.629776799993124,None,727214,001,2024-10-16_17h50.24.138,4.0 Motor Sequence Learning,2024.1.5,None,2024-10-16 17h50.33.464475 +0530,
-150,z,,,,,8,1,33,3,749.2434365000227,,,,,,,,,,,,,,,,749.2306365999975,749.2434365000227,750.2424982999801,750.2424982999801,750.2424982999801,750.2424982999801,750.2424982999801,751.2417674000026,751.2417674000026,754.6909230999881,x,0,3.4470614999881946,None,727214,001,2024-10-16_17h50.24.138,4.0 Motor Sequence Learning,2024.1.5,None,2024-10-16 17h50.33.464475 +0530,
50,c,,,,,8,2,34,2,754.7053446000209,,,,,,,,,,,,,,,,754.6929635999841,754.7053446000209,755.7045066999854,755.7045066999854,755.7045066999854,755.7045066999854,755.7045066999854,756.7038111999864,756.7038111999864,757.8709392999881,c,1,1.1643614000058733,None,727214,001,2024-10-16_17h50.24.138,4.0 Motor Sequence Learning,2024.1.5,None,2024-10-16 17h50.33.464475 +0530,
-50,x,,,,,8,3,35,0,757.8863930000225,,,,,,,,,,,,,,,,757.8725228999974,757.8863930000225,758.8854109999957,758.8854109999957,758.8854109999957,758.8854109999957,758.8854109999957,759.8846475000028,759.8846475000028,765.6975371000008,v,0,5.80355640000198,None,727214,001,2024-10-16_17h50.24.138,4.0 Motor Sequence Learning,2024.1.5,None,2024-10-16 17h50.33.464475 +0530,
150,v,,,,,9,0,36,1,765.7127429000102,,,,,,,,,,,,,,,,765.699444900034,765.7127429000102,766.712449099985,766.712449099985,766.712449099985,766.712449099985,766.712449099985,767.7116537999827,767.7116537999827,774.573905199999,z,0,6.855174100026488,None,727214,001,2024-10-16_17h50.24.138,4.0 Motor Sequence Learning,2024.1.5,None,2024-10-16 17h50.33.464475 +0530,
50,c,,,,,9,1,37,2,774.5891450000345,,,,,,,,,,,,,,,,774.5755250999937,774.5891450000345,775.5880531999865,775.5880531999865,775.5880531999865,775.5880531999865,775.5880531999865,776.5872639000299,776.5872639000299,779.3198593999841,c,1,2.7250579999526963,None,727214,001,2024-10-16_17h50.24.138,4.0 Motor Sequence Learning,2024.1.5,None,2024-10-16 17h50.33.464475 +0530,
-150,z,,,,,9,2,38,3,779.3349856000277,,,,,,,,,,,,,,,,779.3221110000159,779.3349856000277,780.3343790000072,780.3343790000072,780.3343790000072,780.3343790000072,780.3343790000072,781.3335602000006,781.3335602000006,784.7319563999772,x,0,3.3903459000284784,None,727214,001,2024-10-16_17h50.24.138,4.0 Motor Sequence Learning,2024.1.5,None,2024-10-16 17h50.33.464475 +0530,
-50,x,,,,,9,3,39,0,784.7474888000288,,,,,,,,,,,,,,,,784.73375210003,784.7474888000288,785.7466218000045,785.7466218000045,785.7466218000045,785.7466218000045,785.7466218000045,786.7459932999918,786.7459932999918,790.1280316000339,v,0,3.374574300018139,None,727214,001,2024-10-16_17h50.24.138,4.0 Motor Sequence Learning,2024.1.5,None,2024-10-16 17h50.33.464475 +0530,
-150,z,,,,,10,0,40,3,790.1432388999965,,,,,,,,,,,,,,,,790.1298796000192,790.1432388999965,791.142241100024,791.142241100024,791.142241100024,791.142241100024,791.142241100024,792.1415010999772,792.1415010999772,793.2418830000097,x,0,1.0889541000360623,None,727214,001,2024-10-16_17h50.24.138,4.0 Motor Sequence Learning,2024.1.5,None,2024-10-16 17h50.33.464475 +0530,
50,c,,,,,10,1,41,2,793.2572614999954,,,,,,,,,,,,,,,,793.2436564000091,793.2572614999954,794.2563996000099,794.2563996000099,794.2563996000099,794.2563996000099,794.2563996000099,795.2555167999817,795.2555167999817,796.0390523999813,c,1,0.7738053999491967,None,727214,001,2024-10-16_17h50.24.138,4.0 Motor Sequence Learning,2024.1.5,None,2024-10-16 17h50.33.464475 +0530,
-150,z,,,,,10,2,42,3,796.0549911999842,,,,,,,,,,,,,,,,796.0403681999887,796.0549911999842,797.0541366999969,797.0541366999969,797.0541366999969,797.0541366999969,797.0541366999969,798.053288199997,798.053288199997,798.8869887000183,x,0,0.8282249000039883,None,727214,001,2024-10-16_17h50.24.138,4.0 Motor Sequence Learning,2024.1.5,None,2024-10-16 17h50.33.464475 +0530,
50,c,,,,,10,3,43,2,798.9024867999833,,,,,,,,,,,,,,,,798.8885830999934,798.9024867999833,799.9018461999949,799.9018461999949,799.9018461999949,799.9018461999949,799.9018461999949,800.9009814999881,800.9009814999881,801.7348452000297,c,1,0.8221022000070661,None,727214,001,2024-10-16_17h50.24.138,4.0 Motor Sequence Learning,2024.1.5,None,2024-10-16 17h50.33.464475 +0530,
-50,x,,,,,11,0,44,0,801.7498191000195,,,,,,,,,,,,,,,,801.7367297000019,801.7498191000195,802.7495468999841,802.7495468999841,802.7495468999841,802.7495468999841,802.7495468999841,803.7485198000213,803.7485198000213,804.8498800999951,v,0,1.0846114999731071,None,727214,001,2024-10-16_17h50.24.138,4.0 Motor Sequence Learning,2024.1.5,None,2024-10-16 17h50.33.464475 +0530,
-50,x,,,,,11,1,45,0,804.8641411000281,,,,,,,,,,,,,,,,804.8521392000257,804.8641411000281,805.8628477000166,805.8628477000166,805.8628477000166,805.8628477000166,805.8628477000166,806.8622767999768,806.8622767999768,807.8472685000161,v,0,0.9774193000048399,None,727214,001,2024-10-16_17h50.24.138,4.0 Motor Sequence Learning,2024.1.5,None,2024-10-16 17h50.33.464475 +0530,
150,v,,,,,11,2,46,1,807.8616794000263,,,,,,,,,,,,,,,,807.8490236999933,807.8616794000263,808.8609530000249,808.8609530000249,808.8609530000249,808.8609530000249,808.8609530000249,809.8599987000343,809.8599987000343,811.0943811000325,z,0,1.2293080000090413,None,727214,001,2024-10-16_17h50.24.138,4.0 Motor Sequence Learning,2024.1.5,None,2024-10-16 17h50.33.464475 +0530,
-150,z,,,,,11,3,47,3,811.1091071999981,,,,,,,,,,,,,,,,811.0965041000163,811.1091071999981,812.1081105999765,812.1081105999765,812.1081105999765,812.1081105999765,812.1081105999765,813.1073958000052,813.1073958000052,814.2913224999793,z,1,1.1818291999516077,None,727214,001,2024-10-16_17h50.24.138,4.0 Motor Sequence Learning,2024.1.5,None,2024-10-16 17h50.33.464475 +0530,
150,v,,,,,12,0,48,1,814.3066336999764,,,,,,,,,,,,,,,,814.2931535000098,814.3066336999764,815.3056374000153,815.3056374000153,815.3056374000153,815.3056374000153,815.3056374000153,816.304633199994,816.304633199994,817.1724817000213,z,0,0.8549537999788299,None,727214,001,2024-10-16_17h50.24.138,4.0 Motor Sequence Learning,2024.1.5,None,2024-10-16 17h50.33.464475 +0530,
150,v,,,,,12,1,49,1,817.1876467000111,,,,,,,,,,,,,,,,817.1744000000181,817.1876467000111,818.1866845000186,818.1866845000186,818.1866845000186,818.1866845000186,818.1866845000186,819.1858091999893,819.1858091999893,820.0531337999855,z,0,0.8558458999614231,None,727214,001,2024-10-16_17h50.24.138,4.0 Motor Sequence Learning,2024.1.5,None,2024-10-16 17h50.33.464475 +0530,
-50,x,,,,,12,2,50,0,820.0685227999929,,,,,,,,,,,,,,,,820.0553703000187,820.0685227999929,821.0676267999806,821.0676267999806,821.0676267999806,821.0676267999806,821.0676267999806,822.0668734000064,822.0668734000064,822.9677022999967,v,0,0.8928873999975622,None,727214,001,2024-10-16_17h50.24.138,4.0 Motor Sequence Learning,2024.1.5,None,2024-10-16 17h50.33.464475 +0530,
-50,x,,,,,12,3,51,0,822.9829605999985,,,,,,,,,,,,,,,,822.969356000016,822.9829605999985,823.982015400019,823.982015400019,823.982015400019,823.982015400019,823.982015400019,824.9810866999906,824.9810866999906,828.312477200001,v,0,3.3200221000006422,None,727214,001,2024-10-16_17h50.24.138,4.0 Motor Sequence Learning,2024.1.5,None,2024-10-16 17h50.33.464475 +0530,
50,c,,,,,13,0,52,2,828.3282690999913,,,,,,,,,,,,,,,,828.3134989999817,828.3282690999913,829.3277073000208,829.3277073000208,829.3277073000208,829.3277073000208,829.3277073000208,830.3267319999868,830.3267319999868,831.7435620999895,c,1,1.4103201999678276,None,727214,001,2024-10-16_17h50.24.138,4.0 Motor Sequence Learning,2024.1.5,None,2024-10-16 17h50.33.464475 +0530,
50,c,,,,,13,1,53,2,831.7588091000216,,,,,,,,,,,,,,,,831.7458234999795,831.7588091000216,832.7580417999998,832.7580417999998,832.7580417999998,832.7580417999998,832.7580417999998,833.7571776999976,833.7571776999976,834.9747762000188,c,1,1.20863189996453,None,727214,001,2024-10-16_17h50.24.138,4.0 Motor Sequence Learning,2024.1.5,None,2024-10-16 17h50.33.464475 +0530,
-50,x,,,,,13,2,54,0,834.9894186999882,,,,,,,,,,,,,,,,834.9766580000287,834.9894186999882,835.9885993999778,835.9885993999778,835.9885993999778,835.9885993999778,835.9885993999778,836.9875769999926,836.9875769999926,839.8366804000107,v,0,2.84468039998319,None,727214,001,2024-10-16_17h50.24.138,4.0 Motor Sequence Learning,2024.1.5,None,2024-10-16 17h50.33.464475 +0530,
-150,z,,,,,13,3,55,3,839.8522575999959,,,,,,,,,,,,,,,,839.8385344999842,839.8522575999959,840.851412900025,840.851412900025,840.851412900025,840.851412900025,840.851412900025,841.8502444000333,841.8502444000333,845.3662497000187,x,0,3.513148900005035,None,727214,001,2024-10-16_17h50.24.138,4.0 Motor Sequence Learning,2024.1.5,None,2024-10-16 17h50.33.464475 +0530,
-50,x,,,,,14,0,56,0,845.380713200022,,,,,,,,,,,,,,,,845.3681729999953,845.380713200022,846.3799113000277,846.3799113000277,846.3799113000277,846.3799113000277,846.3799113000277,847.3792991000228,847.3792991000228,848.3633009000332,v,0,0.9790115000214428,None,727214,001,2024-10-16_17h50.24.138,4.0 Motor Sequence Learning,2024.1.5,None,2024-10-16 17h50.33.464475 +0530,
-150,z,,,,,14,1,57,3,848.378249100002,,,,,,,,,,,,,,,,848.365021399979,848.378249100002,849.3776455000043,849.3776455000043,849.3776455000043,849.3776455000043,849.3776455000043,850.3767240000307,850.3767240000307,855.0574334000121,x,0,4.670717099972535,None,727214,001,2024-10-16_17h50.24.138,4.0 Motor Sequence Learning,2024.1.5,None,2024-10-16 17h50.33.464475 +0530,
-50,x,,,,,14,2,58,0,855.0729675000184,,,,,,,,,,,,,,,,855.0591145000071,855.0729675000184,856.0720755999791,856.0720755999791,856.0720755999791,856.0720755999791,856.0720755999791,857.0709995999932,857.0709995999932,858.9058009000146,v,0,1.8326804999960586,None,727214,001,2024-10-16_17h50.24.138,4.0 Motor Sequence Learning,2024.1.5,None,2024-10-16 17h50.33.464475 +0530,
-150,z,,,,,14,3,59,3,858.9198708999902,,,,,,,,,,,,,,,,858.9076604000293,858.9198708999902,859.918955000001,859.918955000001,859.918955000001,859.918955000001,859.918955000001,860.9180568000302,860.9180568000302,862.2191750999773,x,0,1.2990897999843583,None,727214,001,2024-10-16_17h50.24.138,4.0 Motor Sequence Learning,2024.1.5,None,2024-10-16 17h50.33.464475 +0530,
-50,x,,,,,15,0,60,0,862.2337832999765,,,,,,,,,,,,,,,,862.2210800999892,862.2337832999765,863.2331138000009,863.2331138000009,863.2331138000009,863.2331138000009,863.2331138000009,864.2322758000228,864.2322758000228,865.5157300999854,v,0,1.269151599961333,None,727214,001,2024-10-16_17h50.24.138,4.0 Motor Sequence Learning,2024.1.5,None,2024-10-16 17h50.33.464475 +0530,
-150,z,,,,,15,1,61,3,865.5310281999991,,,,,,,,,,,,,,,,865.5176531000179,865.5310281999991,866.5303080999875,866.5303080999875,866.5303080999875,866.5303080999875,866.5303080999875,867.5294326000148,867.5294326000148,868.6464234000305,x,0,1.105457599973306,None,727214,001,2024-10-16_17h50.24.138,4.0 Motor Sequence Learning,2024.1.5,None,2024-10-16 17h50.33.464475 +0530,
150,v,,,,,15,2,62,1,868.6616402000072,,,,,,,,,,,,,,,,868.6496715000249,868.6616402000072,869.6607881999807,869.6607881999807,869.6607881999807,869.6607881999807,869.6607881999807,870.6599212000147,870.6599212000147,871.543975299981,z,0,0.8749745999812149,None,727214,001,2024-10-16_17h50.24.138,4.0 Motor Sequence Learning,2024.1.5,None,2024-10-16 17h50.33.464475 +0530,
50,c,,,,,15,3,63,2,871.559442800004,,,,,,,,,,,,,,,,871.5456395000219,871.559442800004,872.5586100000073,872.5586100000073,872.5586100000073,872.5586100000073,872.5586100000073,873.557672200026,873.557672200026,875.341454599984,c,1,1.768241100013256,None,727214,001,2024-10-16_17h50.24.138,4.0 Motor Sequence Learning,2024.1.5,None,2024-10-16 17h50.33.464475 +0530,
150,v,,,,,16,0,64,1,875.3562014999916,,,,,,,,,,,,,,,,875.3435603000107,875.3562014999916,876.3554465000052,876.3554465000052,876.3554465000052,876.3554465000052,876.3554465000052,877.3546244000318,877.3546244000318,879.0715246000327,z,0,1.701763299992308,None,727214,001,2024-10-16_17h50.24.138,4.0 Motor Sequence Learning,2024.1.5,None,2024-10-16 17h50.33.464475 +0530,
