pos,corr_resp,trials.thisRepN,trials.thisTrialN,trials.thisN,trials.thisIndex,trials_2.thisRepN,trials_2.thisTrialN,trials_2.thisN,trials_2.thisIndex,thisRow.t,notes,trial.started,fixation.started,line1.started,line2.started,line3.started,line4.started,fixation.stopped,probe.started,key_resp.started,trial.stopped,key_resp.keys,key_resp.corr,key_resp.rt,key_resp.duration,routine_2.started,Fixation.started,Line1.started,Line2.started,Line3.started,Line4.started,Fixation.stopped,Probe.started,key_resp_2.started,routine_2.stopped,key_resp_2.keys,key_resp_2.corr,key_resp_2.rt,key_resp_2.duration,participant,session,date,expName,psychopyVersion,frameRate,expStart,
-50,x,0,0,0,0,,,,,0.016729200026020408,,0.01001839991658926,0.016729200026020408,0.9997839999850839,0.9997839999850839,0.9997839999850839,0.9997839999850839,1.013364400016144,2.0125871999189258,2.0125871999189258,3.497413699980825,c,0,1.4626713999314234,None,,,,,,,,,,,,,,,801544,001,2024-10-17_14h32.30.810,4.0 Motor Sequence Learning,2024.1.5,None,2024-10-17 14h33.02.628742 +0530,
150,v,0,1,1,1,,,,,3.5128460000269115,,3.5012891999213025,3.5128460000269115,4.510522399912588,4.510522399912588,4.510522399912588,4.510522399912588,4.510522399912588,5.509666100027971,5.509666100027971,7.892244899994694,v,1,2.3755890999455005,None,,,,,,,,,,,,,,,801544,001,2024-10-17_14h32.30.810,4.0 Motor Sequence Learning,2024.1.5,None,2024-10-17 14h33.02.628742 +0530,
50,c,0,2,2,2,,,,,7.910488500026986,,7.893885899917223,7.910488500026986,8.893069899990223,8.893069899990223,8.893069899990223,8.893069899990223,8.906808299943805,9.906038300017826,9.906038300017826,12.02239139995072,x,0,2.0997307000216097,None,,,,,,,,,,,,,,,801544,001,2024-10-17_14h32.30.810,4.0 Motor Sequence Learning,2024.1.5,None,2024-10-17 14h33.02.628742 +0530,
-150,z,0,3,3,3,,,,,12.040513599989936,,12.02425359992776,12.040513599989936,13.022702599992044,13.022702599992044,13.022702599992044,13.022702599992044,13.053525399998762,14.035972399986349,14.035972399986349,15.286760699935257,z,1,1.2458136000204831,None,,,,,,,,,,,,,,,801544,001,2024-10-17_14h32.30.810,4.0 Motor Sequence Learning,2024.1.5,None,2024-10-17 14h33.02.628742 +0530,
-50,x,1,0,4,0,,,,,15.304321900010109,,15.288556099985726,15.304321900010109,16.30076269991696,16.30076269991696,16.30076269991696,16.30076269991696,16.30076269991696,17.300128599978052,17.300128599978052,18.867197999963537,c,0,1.5599615999963135,None,,,,,,,,,,,,,,,801544,001,2024-10-17_14h32.30.810,4.0 Motor Sequence Learning,2024.1.5,None,2024-10-17 14h33.02.628742 +0530,
150,v,1,1,5,1,,,,,18.884793899953365,,18.86914099997375,18.884793899953365,19.881383599946275,19.881383599946275,19.881383599946275,19.881383599946275,19.881383599946275,20.880448499927297,20.880448499927297,22.963488499983214,v,1,2.0779749000212178,None,,,,,,,,,,,,,,,801544,001,2024-10-17_14h32.30.810,4.0 Motor Sequence Learning,2024.1.5,None,2024-10-17 14h33.02.628742 +0530,
50,c,1,2,6,2,,,,,22.98123279993888,,22.965310900006443,22.98123279993888,23.963724299916066,23.963724299916066,23.963724299916066,23.963724299916066,23.978015100001357,24.97699689993169,24.97699689993169,27.72629539994523,x,0,2.732022100011818,None,,,,,,,,,,,,,,,801544,001,2024-10-17_14h32.30.810,4.0 Motor Sequence Learning,2024.1.5,None,2024-10-17 14h33.02.628742 +0530,
-150,z,1,3,7,3,,,,,27.744156599976122,,27.72836449998431,27.744156599976122,28.72675139992498,28.72675139992498,28.72675139992498,28.72675139992498,28.740594599978067,29.739715999923646,29.739715999923646,31.24110819993075,z,1,1.4991692999610677,None,,,,,,,,,,,,,,,801544,001,2024-10-17_14h32.30.810,4.0 Motor Sequence Learning,2024.1.5,None,2024-10-17 14h33.02.628742 +0530,
-50,x,2,0,8,0,,,,,31.25770710001234,,31.243112699943595,31.25770710001234,32.25418940000236,32.25418940000236,32.25418940000236,32.25418940000236,32.25418940000236,33.25337379996199,33.25337379996199,34.60374079993926,c,0,1.3376405000453815,None,,,,,,,,,,,,,,,801544,001,2024-10-17_14h32.30.810,4.0 Motor Sequence Learning,2024.1.5,None,2024-10-17 14h33.02.628742 +0530,
150,v,2,1,9,1,,,,,34.62188430002425,,34.605610999977216,34.62188430002425,35.60440079995897,35.60440079995897,35.60440079995897,35.60440079995897,35.618263299926184,36.61730129993521,36.61730129993521,38.884072899934836,v,1,2.2504394999705255,None,,,,,,,,,,,,,,,801544,001,2024-10-17_14h32.30.810,4.0 Motor Sequence Learning,2024.1.5,None,2024-10-17 14h33.02.628742 +0530,
50,c,2,2,10,2,,,,,38.9014377000276,,38.88610859995242,38.9014377000276,39.8977498000022,39.8977498000022,39.8977498000022,39.8977498000022,39.8977498000022,40.8970021000132,40.8970021000132,43.313461799989454,x,0,2.4067152000498027,None,,,,,,,,,,,,,,,801544,001,2024-10-17_14h32.30.810,4.0 Motor Sequence Learning,2024.1.5,None,2024-10-17 14h33.02.628742 +0530,
-150,z,2,3,11,3,,,,,43.33124809991568,,43.31539210001938,43.33124809991568,44.31394239992369,44.31394239992369,44.31394239992369,44.31394239992369,44.3277029999299,45.32701739994809,45.32701739994809,46.64378469996154,z,1,1.311154699884355,None,,,,,,,,,,,,,,,801544,001,2024-10-17_14h32.30.810,4.0 Motor Sequence Learning,2024.1.5,None,2024-10-17 14h33.02.628742 +0530,
-50,x,3,0,12,0,,,,,46.66202849999536,,46.645684299990535,46.66202849999536,47.64451949996874,47.64451949996874,47.64451949996874,47.64451949996874,47.658357099979185,48.65760339994449,48.65760339994449,51.32350870000664,c,0,2.649005699902773,None,,,,,,,,,,,,,,,801544,001,2024-10-17_14h32.30.810,4.0 Motor Sequence Learning,2024.1.5,None,2024-10-17 14h33.02.628742 +0530,
150,v,3,1,13,1,,,,,51.341420299955644,,51.325499999918975,51.341420299955644,52.324038499966264,52.324038499966264,52.324038499966264,52.324038499966264,52.33764009992592,53.336802699952386,53.336802699952386,55.60338749992661,v,1,2.2573535999981686,None,,,,,,,,,,,,,,,801544,001,2024-10-17_14h32.30.810,4.0 Motor Sequence Learning,2024.1.5,None,2024-10-17 14h33.02.628742 +0530,
50,c,3,2,14,2,,,,,55.62123429996427,,55.60522279993165,55.62123429996427,56.60397759999614,56.60397759999614,56.60397759999614,56.60397759999614,56.617701199953444,57.61669890000485,57.61669890000485,61.29829519998748,x,0,3.6653732999693602,None,,,,,,,,,,,,,,,801544,001,2024-10-17_14h32.30.810,4.0 Motor Sequence Learning,2024.1.5,None,2024-10-17 14h33.02.628742 +0530,
-150,z,3,3,15,3,,,,,61.31655340001453,,61.30011930002365,61.31655340001453,62.29929879994597,62.29929879994597,62.29929879994597,62.29929879994597,62.313054199912585,63.312287500011735,63.312287500011735,65.87750279996544,z,1,2.558416199986823,None,,,,,,,,,,,,,,,801544,001,2024-10-17_14h32.30.810,4.0 Motor Sequence Learning,2024.1.5,None,2024-10-17 14h33.02.628742 +0530,
-50,x,4,0,16,0,,,,,65.8962100999197,,65.87914859992452,65.8962100999197,66.87827129999641,66.87827129999641,66.87827129999641,66.87827129999641,66.90907910000533,67.89169519999996,67.89169519999996,69.40833559993189,c,0,1.5083327000029385,None,,,,,,,,,,,,,,,801544,001,2024-10-17_14h32.30.810,4.0 Motor Sequence Learning,2024.1.5,None,2024-10-17 14h33.02.628742 +0530,
150,v,4,1,17,1,,,,,69.42613979999442,,69.41004200000316,69.42613979999442,70.40887869999278,70.40887869999278,70.40887869999278,70.40887869999278,70.42264060000889,71.42180299991742,71.42180299991742,73.13824979995843,v,1,1.7091661000158638,None,,,,,,,,,,,,,,,801544,001,2024-10-17_14h32.30.810,4.0 Motor Sequence Learning,2024.1.5,None,2024-10-17 14h33.02.628742 +0530,
50,c,4,2,18,2,,,,,73.1566377999261,,73.13980160001665,73.1566377999261,74.13915279996581,74.13915279996581,74.13915279996581,74.13915279996581,74.15298539993819,75.15233559999615,75.15233559999615,77.71810920001008,x,0,2.563568599987775,None,,,,,,,,,,,,,,,801544,001,2024-10-17_14h32.30.810,4.0 Motor Sequence Learning,2024.1.5,None,2024-10-17 14h33.02.628742 +0530,
-150,z,4,3,19,3,,,,,77.73669849999715,,77.71998159994837,77.73669849999715,78.71863779996056,78.71863779996056,78.71863779996056,78.71863779996056,78.74943790002726,79.73166990000755,79.73166990000755,81.43184480001219,z,1,1.6915040001040325,None,,,,,,,,,,,,,,,801544,001,2024-10-17_14h32.30.810,4.0 Motor Sequence Learning,2024.1.5,None,2024-10-17 14h33.02.628742 +0530,
-50,x,5,0,20,0,,,,,81.44999029999599,,81.43438450002577,81.44999029999599,82.43271969992202,82.43271969992202,82.43271969992202,82.43271969992202,82.4460923000006,83.4454838000238,83.4454838000238,84.8957628000062,c,0,1.4465730000520125,None,,,,,,,,,,,,,,,801544,001,2024-10-17_14h32.30.810,4.0 Motor Sequence Learning,2024.1.5,None,2024-10-17 14h33.02.628742 +0530,
150,v,5,1,21,1,,,,,84.91367429995444,,84.89760819997173,84.91367429995444,85.89643790002447,85.89643790002447,85.89643790002447,85.89643790002447,85.90984129998833,86.9091083999956,86.9091083999956,88.5761253000237,v,1,1.657778299995698,None,,,,,,,,,,,,,,,801544,001,2024-10-17_14h32.30.810,4.0 Motor Sequence Learning,2024.1.5,None,2024-10-17 14h33.02.628742 +0530,
50,c,5,2,22,2,,,,,88.5940544999903,,88.57781049993355,88.5940544999903,89.57666789996438,89.57666789996438,89.57666789996438,89.57666789996438,89.59023039997555,90.58951239997987,90.58951239997987,92.50600249995477,x,0,1.9141011000610888,None,,,,,,,,,,,,,,,801544,001,2024-10-17_14h32.30.810,4.0 Motor Sequence Learning,2024.1.5,None,2024-10-17 14h33.02.628742 +0530,
-150,z,5,3,23,3,,,,,92.52415630000178,,92.50807679991703,92.52415630000178,93.50668019999284,93.50668019999284,93.50668019999284,93.50668019999284,93.52071149996482,94.51960969995707,94.51960969995707,96.28689470002428,z,1,1.750218000030145,None,,,,,,,,,,,,,,,801544,001,2024-10-17_14h32.30.810,4.0 Motor Sequence Learning,2024.1.5,None,2024-10-17 14h33.02.628742 +0530,
-50,x,6,0,24,0,,,,,96.30418119998649,,96.28886540001258,96.30418119998649,97.28725169994868,97.28725169994868,97.28725169994868,97.28725169994868,97.3004624999594,98.30407359998208,98.30407359998208,101.3845271000173,c,0,3.067388999974355,None,,,,,,,,,,,,,,,801544,001,2024-10-17_14h32.30.810,4.0 Motor Sequence Learning,2024.1.5,None,2024-10-17 14h33.02.628742 +0530,
150,v,6,1,25,1,,,,,101.40091939992271,,101.3858540999936,101.40091939992271,102.40247069997713,102.40247069997713,102.40247069997713,102.40247069997713,102.40247069997713,103.39980999997351,103.39980999997351,105.84882730001118,v,1,2.44171839999035,None,,,,,,,,,,,,,,,801544,001,2024-10-17_14h32.30.810,4.0 Motor Sequence Learning,2024.1.5,None,2024-10-17 14h33.02.628742 +0530,
50,c,6,2,26,2,,,,,105.86404509993736,,105.85062489996199,105.86404509993736,106.86326989997178,106.86326989997178,106.86326989997178,106.86326989997178,106.86326989997178,107.86235529999249,107.86235529999249,109.7791882000165,x,0,1.9112759000854567,None,,,,,,,,,,,,,,,801544,001,2024-10-17_14h32.30.810,4.0 Motor Sequence Learning,2024.1.5,None,2024-10-17 14h33.02.628742 +0530,
-150,z,6,3,27,3,,,,,109.79407910001464,,109.7811415999895,109.79407910001464,110.79364549997263,110.79364549997263,110.79364549997263,110.79364549997263,110.79364549997263,111.79283609997947,111.79283609997947,113.47608870000113,z,1,1.6807477999245748,None,,,,,,,,,,,,,,,801544,001,2024-10-17_14h32.30.810,4.0 Motor Sequence Learning,2024.1.5,None,2024-10-17 14h33.02.628742 +0530,
-50,x,7,0,28,0,,,,,113.49066699994728,,113.47753499995451,113.49066699994728,114.49045149993617,114.49045149993617,114.49045149993617,114.49045149993617,114.49045149993617,115.48882129997946,115.48882129997946,116.90666699991561,c,0,1.4045432999264449,None,,,,,,,,,,,,,,,801544,001,2024-10-17_14h32.30.810,4.0 Motor Sequence Learning,2024.1.5,None,2024-10-17 14h33.02.628742 +0530,
150,v,7,1,29,1,,,,,116.92178129998501,,116.90847859997302,116.92178129998501,117.92086289997678,117.92086289997678,117.92086289997678,117.92086289997678,117.92086289997678,118.92002780002076,118.92002780002076,121.55295539996587,v,1,2.6199787999503314,None,,,,,,,,,,,,,,,801544,001,2024-10-17_14h32.30.810,4.0 Motor Sequence Learning,2024.1.5,None,2024-10-17 14h33.02.628742 +0530,
50,c,7,2,30,2,,,,,121.56793809996452,,121.55469319992699,121.56793809996452,122.56691569997929,122.56691569997929,122.56691569997929,122.56691569997929,122.56691569997929,123.56600709992927,123.56600709992927,125.83225809992291,x,0,2.251711199991405,None,,,,,,,,,,,,,,,801544,001,2024-10-17_14h32.30.810,4.0 Motor Sequence Learning,2024.1.5,None,2024-10-17 14h33.02.628742 +0530,
-150,z,7,3,31,3,,,,,125.84764819999691,,125.83385099994484,125.84764819999691,126.8467281999765,126.8467281999765,126.8467281999765,126.8467281999765,126.8467281999765,127.84558520000428,127.84558520000428,129.59655419993214,z,1,1.7365699999500066,None,,,,,,,,,,,,,,,801544,001,2024-10-17_14h32.30.810,4.0 Motor Sequence Learning,2024.1.5,None,2024-10-17 14h33.02.628742 +0530,
-50,x,8,0,32,0,,,,,129.61106569995172,,129.5987570999423,129.61106569995172,130.610126900021,130.610126900021,130.610126900021,130.610126900021,130.610126900021,131.60999599995557,131.60999599995557,133.59293980000075,c,0,1.9804849999491125,None,,,,,,,,,,,,,,,801544,001,2024-10-17_14h32.30.810,4.0 Motor Sequence Learning,2024.1.5,None,2024-10-17 14h33.02.628742 +0530,
150,v,8,1,33,1,,,,,133.6077717000153,,133.594691199949,133.6077717000153,134.6070709999185,134.6070709999185,134.6070709999185,134.6070709999185,134.6070709999185,135.60620959999505,135.60620959999505,137.22347939992324,v,1,1.5995106000918895,None,,,,,,,,,,,,,,,801544,001,2024-10-17_14h32.30.810,4.0 Motor Sequence Learning,2024.1.5,None,2024-10-17 14h33.02.628742 +0530,
50,c,8,2,34,2,,,,,137.2386317999335,,137.22528959996998,137.2386317999335,138.23734370002057,138.23734370002057,138.23734370002057,138.23734370002057,138.25404989998788,139.23654820001684,139.23654820001684,140.92074690002482,x,0,1.6794924000278115,None,,,,,,,,,,,,,,,801544,001,2024-10-17_14h32.30.810,4.0 Motor Sequence Learning,2024.1.5,None,2024-10-17 14h33.02.628742 +0530,
-150,z,8,3,35,3,,,,,140.9353011000203,,140.92252369993366,140.9353011000203,141.9347758999793,141.9347758999793,141.9347758999793,141.9347758999793,141.9347758999793,142.933652699925,142.933652699925,144.31792920001317,z,1,1.3783996000420302,None,,,,,,,,,,,,,,,801544,001,2024-10-17_14h32.30.810,4.0 Motor Sequence Learning,2024.1.5,None,2024-10-17 14h33.02.628742 +0530,
-50,x,9,0,36,0,,,,,144.33248370001093,,144.31945519999135,144.33248370001093,145.33155779994559,145.33155779994559,145.33155779994559,145.33155779994559,145.33155779994559,146.33066169999074,146.33066169999074,147.79780840000603,c,0,1.4597476000199094,None,,,,,,,,,,,,,,,801544,001,2024-10-17_14h32.30.810,4.0 Motor Sequence Learning,2024.1.5,None,2024-10-17 14h33.02.628742 +0530,
150,v,9,1,37,1,,,,,147.81297069997527,,147.79961629991885,147.81297069997527,148.81210659991484,148.81210659991484,148.81210659991484,148.81210659991484,148.81210659991484,149.8111488999566,149.8111488999566,152.0778095999267,v,1,2.259540700004436,None,,,,,,,,,,,,,,,801544,001,2024-10-17_14h32.30.810,4.0 Motor Sequence Learning,2024.1.5,None,2024-10-17 14h33.02.628742 +0530,
50,c,9,2,38,2,,,,,152.09275499999058,,152.07955149991903,152.09275499999058,153.09195659996476,153.09195659996476,153.09195659996476,153.09195659996476,153.09195659996476,154.0909869999159,154.0909869999159,157.27332809998188,x,0,3.1754710999084637,None,,,,,,,,,,,,,,,801544,001,2024-10-17_14h32.30.810,4.0 Motor Sequence Learning,2024.1.5,None,2024-10-17 14h33.02.628742 +0530,
-150,z,9,3,39,3,,,,,157.28819689992815,,157.2751406999305,157.28819689992815,158.28755379992072,158.28755379992072,158.28755379992072,158.28755379992072,158.28755379992072,159.28681499999948,159.28681499999948,162.1532779999543,z,1,2.8645357000641525,None,,,,,,,,,,,,,,,801544,001,2024-10-17_14h32.30.810,4.0 Motor Sequence Learning,2024.1.5,None,2024-10-17 14h33.02.628742 +0530,
-50,x,10,0,40,0,,,,,162.16781639994588,,162.15504470001906,162.16781639994588,163.16697789996397,163.16697789996397,163.16697789996397,163.16697789996397,163.16697789996397,164.16584159992635,164.16584159992635,166.76519309997093,c,0,2.5856878000777215,None,,,,,,,,,,,,,,,801544,001,2024-10-17_14h32.30.810,4.0 Motor Sequence Learning,2024.1.5,None,2024-10-17 14h33.02.628742 +0530,
150,v,10,1,41,1,,,,,166.78048349998426,,166.76700609992258,166.78048349998426,167.7797870999202,167.7797870999202,167.7797870999202,167.7797870999202,167.7797870999202,168.77916379994713,168.77916379994713,171.69492289994378,v,1,2.910154700046405,None,,,,,,,,,,,,,,,801544,001,2024-10-17_14h32.30.810,4.0 Motor Sequence Learning,2024.1.5,None,2024-10-17 14h33.02.628742 +0530,
50,c,10,2,42,2,,,,,171.70954619999975,,171.69655629992485,171.70954619999975,172.7089734999463,172.7089734999463,172.7089734999463,172.7089734999463,172.7089734999463,173.70830059994478,173.70830059994478,175.5422936999239,x,0,1.8204796999925748,None,,,,,,,,,,,,,,,801544,001,2024-10-17_14h32.30.810,4.0 Motor Sequence Learning,2024.1.5,None,2024-10-17 14h33.02.628742 +0530,
-150,z,10,3,43,3,,,,,175.55695270001888,,175.5440634000115,175.55695270001888,176.5559621999273,176.5559621999273,176.5559621999273,176.5559621999273,176.5559621999273,177.55515619996004,177.55515619996004,179.98864739993587,z,1,2.431527900043875,None,,,,,,,,,,,,,,,801544,001,2024-10-17_14h32.30.810,4.0 Motor Sequence Learning,2024.1.5,None,2024-10-17 14h33.02.628742 +0530,
-50,x,11,0,44,0,,,,,180.00305719999596,,179.99038969993126,180.00305719999596,181.0025225999998,181.0025225999998,181.0025225999998,181.0025225999998,181.0025225999998,182.00145440001506,182.00145440001506,184.73473559995182,c,0,2.7311191000044346,None,,,,,,,,,,,,,,,801544,001,2024-10-17_14h32.30.810,4.0 Motor Sequence Learning,2024.1.5,None,2024-10-17 14h33.02.628742 +0530,
150,v,11,1,45,1,,,,,184.74952409998514,,184.73691779992077,184.74952409998514,185.74845449998975,185.74845449998975,185.74845449998975,185.74845449998975,185.7648275999818,186.74755650002044,186.74755650002044,188.9974469000008,v,1,2.233313399949111,None,,,,,,,,,,,,,,,801544,001,2024-10-17_14h32.30.810,4.0 Motor Sequence Learning,2024.1.5,None,2024-10-17 14h33.02.628742 +0530,
50,c,11,2,46,2,,,,,189.01243349991273,,188.99920359998941,189.01243349991273,190.01150869997218,190.01150869997218,190.01150869997218,190.01150869997218,190.01150869997218,191.0104628999252,191.0104628999252,193.3271043000277,x,0,2.298780499957502,None,,,,,,,,,,,,,,,801544,001,2024-10-17_14h32.30.810,4.0 Motor Sequence Learning,2024.1.5,None,2024-10-17 14h33.02.628742 +0530,
-150,z,11,3,47,3,,,,,193.34210479992907,,193.3289145999588,193.34210479992907,194.34150769992266,194.34150769992266,194.34150769992266,194.34150769992266,194.34150769992266,195.3405924999388,195.3405924999388,196.85748349991627,z,1,1.5136472000740469,None,,,,,,,,,,,,,,,801544,001,2024-10-17_14h32.30.810,4.0 Motor Sequence Learning,2024.1.5,None,2024-10-17 14h33.02.628742 +0530,
-50,x,12,0,48,0,,,,,196.87260000000242,,196.85925330000464,196.87260000000242,197.87237360002473,197.87237360002473,197.87237360002473,197.87237360002473,197.87237360002473,198.87107539991848,198.87107539991848,200.7885700999759,c,0,1.9149659000104293,None,,,,,,,,,,,,,,,801544,001,2024-10-17_14h32.30.810,4.0 Motor Sequence Learning,2024.1.5,None,2024-10-17 14h33.02.628742 +0530,
150,v,12,1,49,1,,,,,200.80230009998195,,200.79032409994397,200.80230009998195,201.80153059994336,201.80153059994336,201.80153059994336,201.80153059994336,201.80153059994336,202.80103739991318,202.80103739991318,206.36561199999414,v,1,3.5500904999207705,None,,,,,,,,,,,,,,,801544,001,2024-10-17_14h32.30.810,4.0 Motor Sequence Learning,2024.1.5,None,2024-10-17 14h33.02.628742 +0530,
50,c,12,2,50,2,,,,,206.38120699999854,,206.3672378999181,206.38120699999854,207.3806265000021,207.3806265000021,207.3806265000021,207.3806265000021,207.3806265000021,208.37977030000184,208.37977030000184,209.8302988000214,x,0,1.4435580000281334,None,,,,,,,,,,,,,,,801544,001,2024-10-17_14h32.30.810,4.0 Motor Sequence Learning,2024.1.5,None,2024-10-17 14h33.02.628742 +0530,
-150,z,12,3,51,3,,,,,209.844991400023,,209.832065399969,209.844991400023,210.84460159996524,210.84460159996524,210.84460159996524,210.84460159996524,210.84460159996524,211.84374319994822,211.84374319994822,213.2114230999723,z,1,1.3620059000095353,None,,,,,,,,,,,,,,,801544,001,2024-10-17_14h32.30.810,4.0 Motor Sequence Learning,2024.1.5,None,2024-10-17 14h33.02.628742 +0530,
-50,x,13,0,52,0,,,,,213.2276767999865,,213.21332749992143,213.2276767999865,214.22500819992274,214.22500819992274,214.22500819992274,214.22500819992274,214.2415619000094,215.22424619994126,215.22424619994126,216.82506730000023,c,0,1.5961383000249043,None,,,,,,,,,,,,,,,801544,001,2024-10-17_14h32.30.810,4.0 Motor Sequence Learning,2024.1.5,None,2024-10-17 14h33.02.628742 +0530,
150,v,13,1,53,1,,,,,216.8397480000276,,216.82679969992023,216.8397480000276,217.83880899997894,217.83880899997894,217.83880899997894,217.83880899997894,217.83880899997894,218.83769979991484,218.83769979991484,220.37116009998135,v,1,1.521555699990131,None,,,,,,,,,,,,,,,801544,001,2024-10-17_14h32.30.810,4.0 Motor Sequence Learning,2024.1.5,None,2024-10-17 14h33.02.628742 +0530,
50,c,13,2,54,2,,,,,220.38640550000127,,220.37316389998887,220.38640550000127,221.38576420000754,221.38576420000754,221.38576420000754,221.38576420000754,221.38576420000754,222.38469440001063,222.38469440001063,224.5169144999236,x,0,2.1193070999579504,None,,,,,,,,,,,,,,,801544,001,2024-10-17_14h32.30.810,4.0 Motor Sequence Learning,2024.1.5,None,2024-10-17 14h33.02.628742 +0530,
-150,z,13,3,55,3,,,,,224.532668299973,,224.51836779993027,224.532668299973,225.53296979994047,225.53296979994047,225.53296979994047,225.53296979994047,225.53296979994047,226.53090679994784,226.53090679994784,228.71582599997055,z,1,2.1666196000296623,None,,,,,,,,,,,,,,,801544,001,2024-10-17_14h32.30.810,4.0 Motor Sequence Learning,2024.1.5,None,2024-10-17 14h33.02.628742 +0530,
-50,x,14,0,56,0,,,,,228.7291825999273,,228.7176209000172,228.7291825999273,229.7289032000117,229.7289032000117,229.7289032000117,229.7289032000117,229.7289032000117,230.72811369993724,230.72811369993724,232.4281371999532,c,0,1.6919556999346241,None,,,,,,,,,,,,,,,801544,001,2024-10-17_14h32.30.810,4.0 Motor Sequence Learning,2024.1.5,None,2024-10-17 14h33.02.628742 +0530,
150,v,14,1,57,1,,,,,232.4435062999837,,232.42990829993505,232.4435062999837,233.442548800027,233.442548800027,233.442548800027,233.442548800027,233.442548800027,234.4417037999956,234.4417037999956,236.4076422000071,v,1,1.9486324000172317,None,,,,,,,,,,,,,,,801544,001,2024-10-17_14h32.30.810,4.0 Motor Sequence Learning,2024.1.5,None,2024-10-17 14h33.02.628742 +0530,
50,c,14,2,58,2,,,,,236.42374489991926,,236.40930800000206,236.42374489991926,237.42266029992606,237.42266029992606,237.42266029992606,237.42266029992606,237.42266029992606,238.42153259995393,238.42153259995393,240.0216189000057,x,0,1.5906660000327975,None,,,,,,,,,,,,,,,801544,001,2024-10-17_14h32.30.810,4.0 Motor Sequence Learning,2024.1.5,None,2024-10-17 14h33.02.628742 +0530,
-150,z,14,3,59,3,,,,,240.03691809996963,,240.02366279996932,240.03691809996963,241.03632039995864,241.03632039995864,241.03632039995864,241.03632039995864,241.03632039995864,242.03532419994008,242.03532419994008,243.96893269999418,z,1,1.91661080007907,None,,,,,,,,,,,,,,,801544,001,2024-10-17_14h32.30.810,4.0 Motor Sequence Learning,2024.1.5,None,2024-10-17 14h33.02.628742 +0530,
-50,x,15,0,60,0,,,,,243.98413599992637,,243.97067980002612,243.98413599992637,244.98295580002014,244.98295580002014,244.98295580002014,244.98295580002014,244.99973769998178,245.98198209994007,245.98198209994007,247.6320790000027,c,0,1.6335292999865487,None,,,,,,,,,,,,,,,801544,001,2024-10-17_14h32.30.810,4.0 Motor Sequence Learning,2024.1.5,None,2024-10-17 14h33.02.628742 +0530,
150,v,15,1,61,1,,,,,247.64727620000485,,247.63386489998084,247.64727620000485,248.64670359995216,248.64670359995216,248.64670359995216,248.64670359995216,248.64670359995216,249.64578429993708,249.64578429993708,252.1619836000027,v,1,2.514321400085464,None,,,,,,,,,,,,,,,801544,001,2024-10-17_14h32.30.810,4.0 Motor Sequence Learning,2024.1.5,None,2024-10-17 14h33.02.628742 +0530,
50,c,15,2,62,2,,,,,252.17708439996932,,252.1637501999503,252.17708439996932,253.17627129994798,253.17627129994798,253.17627129994798,253.17627129994798,253.17627129994798,254.17512309993617,254.17512309993617,256.0425174999982,x,0,1.8649433000246063,None,,,,,,,,,,,,,,,801544,001,2024-10-17_14h32.30.810,4.0 Motor Sequence Learning,2024.1.5,None,2024-10-17 14h33.02.628742 +0530,
-150,z,15,3,63,3,,,,,256.0570748000173,,256.04430469998624,256.0570748000173,257.05680040002335,257.05680040002335,257.05680040002335,257.05680040002335,257.05680040002335,258.05542350001633,258.05542350001633,259.09037889994215,z,1,1.028166399919428,None,,,,,,,,,,,,,,,801544,001,2024-10-17_14h32.30.810,4.0 Motor Sequence Learning,2024.1.5,None,2024-10-17 14h33.02.628742 +0530,
-50,x,16,0,64,0,,,,,259.10483450000174,,259.0921722999774,259.10483450000174,260.10394469997846,260.10394469997846,260.10394469997846,260.10394469997846,260.10394469997846,261.1032206999371,261.1032206999371,262.9032208999852,c,0,1.7977713999571279,None,,,,,,,,,,,,,,,801544,001,2024-10-17_14h32.30.810,4.0 Motor Sequence Learning,2024.1.5,None,2024-10-17 14h33.02.628742 +0530,
150,v,16,1,65,1,,,,,262.9181120999856,,262.90515409992076,262.9181120999856,263.9174998999806,263.9174998999806,263.9174998999806,263.9174998999806,263.9174998999806,264.91671100002714,264.91671100002714,266.71645830001216,v,1,1.7830795999616385,None,,,,,,,,,,,,,,,801544,001,2024-10-17_14h32.30.810,4.0 Motor Sequence Learning,2024.1.5,None,2024-10-17 14h33.02.628742 +0530,
50,c,16,2,66,2,,,,,266.7316890999209,,266.7184345999267,266.7316890999209,267.7310744000133,267.7310744000133,267.7310744000133,267.7310744000133,267.7310744000133,268.73079299996607,268.73079299996607,270.3804226999637,x,0,1.647039799951017,None,,,,,,,,,,,,,,,801544,001,2024-10-17_14h32.30.810,4.0 Motor Sequence Learning,2024.1.5,None,2024-10-17 14h33.02.628742 +0530,
-150,z,16,3,67,3,,,,,270.39528810000047,,270.3827273999341,270.39528810000047,271.3947891999269,271.3947891999269,271.3947891999269,271.3947891999269,271.3947891999269,272.3938000999624,272.3938000999624,274.0446812999435,z,1,1.6439093999797478,None,,,,,,,,,,,,,,,801544,001,2024-10-17_14h32.30.810,4.0 Motor Sequence Learning,2024.1.5,None,2024-10-17 14h33.02.628742 +0530,
-50,x,17,0,68,0,,,,,274.0591574999271,,274.04644309997093,274.0591574999271,275.05823839991353,275.05823839991353,275.05823839991353,275.05823839991353,275.05823839991353,276.0577548999572,276.0577548999572,277.5244654000271,c,0,1.4493315999861807,None,,,,,,,,,,,,,,,801544,001,2024-10-17_14h32.30.810,4.0 Motor Sequence Learning,2024.1.5,None,2024-10-17 14h33.02.628742 +0530,
150,v,17,1,69,1,,,,,277.5396732999943,,277.5262402999215,277.5396732999943,278.5389954999555,278.5389954999555,278.5389954999555,278.5389954999555,278.5389954999555,279.5379790000152,279.5379790000152,281.5214199000038,v,1,1.9658267999766394,None,,,,,,,,,,,,,,,801544,001,2024-10-17_14h32.30.810,4.0 Motor Sequence Learning,2024.1.5,None,2024-10-17 14h33.02.628742 +0530,
50,c,17,2,70,2,,,,,281.53644529997837,,281.5231546999421,281.53644529997837,282.5358803999843,282.5358803999843,282.5358803999843,282.5358803999843,282.5358803999843,283.53515969996806,283.53515969996806,286.7334362999536,x,0,3.1935389999998733,None,,,,,,,,,,,,,,,801544,001,2024-10-17_14h32.30.810,4.0 Motor Sequence Learning,2024.1.5,None,2024-10-17 14h33.02.628742 +0530,
-150,z,17,3,71,3,,,,,286.74872489995323,,286.73522709996905,286.74872489995323,287.7479489999823,287.7479489999823,287.7479489999823,287.7479489999823,287.7479489999823,288.74705759994686,288.74705759994686,290.79729969997425,z,1,2.0473300999728963,None,,,,,,,,,,,,,,,801544,001,2024-10-17_14h32.30.810,4.0 Motor Sequence Learning,2024.1.5,None,2024-10-17 14h33.02.628742 +0530,
-50,x,18,0,72,0,,,,,290.8121504000155,,290.79904730001,290.8121504000155,291.8113146999385,291.8113146999385,291.8113146999385,291.8113146999385,291.8113146999385,292.81026579998434,292.81026579998434,294.86047029995825,c,0,2.0440561999566853,None,,,,,,,,,,,,,,,801544,001,2024-10-17_14h32.30.810,4.0 Motor Sequence Learning,2024.1.5,None,2024-10-17 14h33.02.628742 +0530,
150,v,18,1,73,1,,,,,294.87521929992363,,294.86210569995455,294.87521929992363,295.87465090001933,295.87465090001933,295.87465090001933,295.87465090001933,295.87465090001933,296.87363199994434,296.87363199994434,298.8235659999773,v,1,1.9420691999839619,None,,,,,,,,,,,,,,,801544,001,2024-10-17_14h32.30.810,4.0 Motor Sequence Learning,2024.1.5,None,2024-10-17 14h33.02.628742 +0530,
50,c,18,2,74,2,,,,,298.8384665999329,,298.82534460001625,298.8384665999329,299.83800869993865,299.83800869993865,299.83800869993865,299.83800869993865,299.83800869993865,300.837497600005,300.837497600005,302.387119299965,x,0,1.533624800038524,None,,,,,,,,,,,,,,,801544,001,2024-10-17_14h32.30.810,4.0 Motor Sequence Learning,2024.1.5,None,2024-10-17 14h33.02.628742 +0530,
-150,z,18,3,75,3,,,,,302.4023354999954,,302.3889304000186,302.4023354999954,303.4019918999402,303.4019918999402,303.4019918999402,303.4019918999402,303.4019918999402,304.40095429995563,304.40095429995563,306.30068919993937,z,1,1.8898327000206336,None,,,,,,,,,,,,,,,801544,001,2024-10-17_14h32.30.810,4.0 Motor Sequence Learning,2024.1.5,None,2024-10-17 14h33.02.628742 +0530,
-50,x,19,0,76,0,,,,,306.3156511000125,,306.3024863000028,306.3156511000125,307.3154689000221,307.3154689000221,307.3154689000221,307.3154689000221,307.3154689000221,308.31426699995063,308.31426699995063,310.0481056999415,c,0,1.7217168998904526,None,,,,,,,,,,,,,,,801544,001,2024-10-17_14h32.30.810,4.0 Motor Sequence Learning,2024.1.5,None,2024-10-17 14h33.02.628742 +0530,
150,v,19,1,77,1,,,,,310.06284269993193,,310.04995289992075,310.06284269993193,311.06247549992986,311.06247549992986,311.06247549992986,311.06247549992986,311.06247549992986,312.06117100000847,312.06117100000847,313.7784579999279,v,1,1.7031696999911219,None,,,,,,,,,,,,,,,801544,001,2024-10-17_14h32.30.810,4.0 Motor Sequence Learning,2024.1.5,None,2024-10-17 14h33.02.628742 +0530,
50,c,19,2,78,2,,,,,313.7935396999819,,313.78022169996984,313.7935396999819,314.7925938999979,314.7925938999979,314.7925938999979,314.7925938999979,314.8089165999554,315.79158550000284,315.79158550000284,317.70836409996264,x,0,1.9011646000435576,None,,,,,,,,,,,,,,,801544,001,2024-10-17_14h32.30.810,4.0 Motor Sequence Learning,2024.1.5,None,2024-10-17 14h33.02.628742 +0530,
-150,z,19,3,79,3,,,,,317.7232282999903,,317.7102053000126,317.7232282999903,318.7224725999404,318.7224725999404,318.7224725999404,318.7224725999404,318.7224725999404,319.7217408999568,319.7217408999568,321.6544764999999,z,1,1.9269378000171855,None,,,,,,,,,,,,,,,801544,001,2024-10-17_14h32.30.810,4.0 Motor Sequence Learning,2024.1.5,None,2024-10-17 14h33.02.628742 +0530,
-50,x,20,0,80,0,,,,,321.66980349994265,,321.6558496999787,321.66980349994265,322.66926430002786,322.66926430002786,322.66926430002786,322.66926430002786,322.66926430002786,323.6679623000091,323.6679623000091,325.0529583999887,c,0,1.3825350999832153,None,,,,,,,,,,,,,,,801544,001,2024-10-17_14h32.30.810,4.0 Motor Sequence Learning,2024.1.5,None,2024-10-17 14h33.02.628742 +0530,
150,v,20,1,81,1,,,,,325.06732999999076,,325.0547401999356,325.06732999999076,326.066454899963,326.066454899963,326.066454899963,326.066454899963,326.066454899963,327.06551689992193,327.06551689992193,328.8154989000177,v,1,1.7412241999991238,None,,,,,,,,,,,,,,,801544,001,2024-10-17_14h32.30.810,4.0 Motor Sequence Learning,2024.1.5,None,2024-10-17 14h33.02.628742 +0530,
50,c,20,2,82,2,,,,,328.8305281000212,,328.8175552999601,328.8305281000212,329.83005909994245,329.83005909994245,329.83005909994245,329.83005909994245,329.83005909994245,330.8292555999942,330.8292555999942,334.11125479999464,x,0,3.276239400031045,None,,,,,,,,,,,,,,,801544,001,2024-10-17_14h32.30.810,4.0 Motor Sequence Learning,2024.1.5,None,2024-10-17 14h33.02.628742 +0530,
-150,z,20,3,83,3,,,,,334.1263968999265,,334.11288369994145,334.1263968999265,335.12541689991485,335.12541689991485,335.12541689991485,335.12541689991485,335.12541689991485,336.12485679995734,336.12485679995734,337.30899749998935,z,1,1.1779665999347344,None,,,,,,,,,,,,,,,801544,001,2024-10-17_14h32.30.810,4.0 Motor Sequence Learning,2024.1.5,None,2024-10-17 14h33.02.628742 +0530,
-50,x,21,0,84,0,,,,,337.32373319996987,,337.3111180999549,337.32373319996987,338.3231274000136,338.3231274000136,338.3231274000136,338.3231274000136,338.3231274000136,339.3221361999167,339.3221361999167,340.58932379994076,c,0,1.2502375999465585,None,,,,,,,,,,,,,,,801544,001,2024-10-17_14h32.30.810,4.0 Motor Sequence Learning,2024.1.5,None,2024-10-17 14h33.02.628742 +0530,
150,v,21,1,85,1,,,,,340.6041622000048,,340.59110720001627,340.6041622000048,341.6035248999251,341.6035248999251,341.6035248999251,341.6035248999251,341.6035248999251,342.6027478999458,342.6027478999458,344.83584209997207,v,1,2.2214788999408484,None,,,,,,,,,,,,,,,801544,001,2024-10-17_14h32.30.810,4.0 Motor Sequence Learning,2024.1.5,None,2024-10-17 14h33.02.628742 +0530,
50,c,21,2,86,2,,,,,344.8509066000115,,344.8376175999874,344.8509066000115,345.8501466999296,345.8501466999296,345.8501466999296,345.8501466999296,345.8501466999296,346.8488465999253,346.8488465999253,348.2827231999254,x,0,1.4225799000123516,None,,,,,,,,,,,,,,,801544,001,2024-10-17_14h32.30.810,4.0 Motor Sequence Learning,2024.1.5,None,2024-10-17 14h33.02.628742 +0530,
-150,z,21,3,87,3,,,,,348.2983408999862,,348.28448679996654,348.2983408999862,349.2974739000201,349.2974739000201,349.2974739000201,349.2974739000201,349.3138657999225,350.29666859994177,350.29666859994177,358.39221189997625,z,1,8.09194200008642,None,,,,,,,,,,,,,,,801544,001,2024-10-17_14h32.30.810,4.0 Motor Sequence Learning,2024.1.5,None,2024-10-17 14h33.02.628742 +0530,
-50,x,22,0,88,0,,,,,358.4064660000149,,358.39404499996454,358.4064660000149,359.40556909993757,359.40556909993757,359.40556909993757,359.40556909993757,359.40556909993757,360.4048491999274,360.4048491999274,362.2215479000006,c,0,1.8077128999866545,None,,,,,,,,,,,,,,,801544,001,2024-10-17_14h32.30.810,4.0 Motor Sequence Learning,2024.1.5,None,2024-10-17 14h33.02.628742 +0530,
150,v,22,1,89,1,,,,,362.23668560001533,,362.22332230000757,362.23668560001533,363.23618829995394,363.23618829995394,363.23618829995394,363.23618829995394,363.23618829995394,364.2351501999656,364.2351501999656,365.95144829992205,v,1,1.6997949000215158,None,,,,,,,,,,,,,,,801544,001,2024-10-17_14h32.30.810,4.0 Motor Sequence Learning,2024.1.5,None,2024-10-17 14h33.02.628742 +0530,
50,c,22,2,90,2,,,,,365.9667035000166,,365.9533085000003,365.9667035000166,366.9659266999224,366.9659266999224,366.9659266999224,366.9659266999224,366.9659266999224,367.9654739999678,367.9654739999678,369.48282269993797,x,0,1.5022763999877498,None,,,,,,,,,,,,,,,801544,001,2024-10-17_14h32.30.810,4.0 Motor Sequence Learning,2024.1.5,None,2024-10-17 14h33.02.628742 +0530,
-150,z,22,3,91,3,,,,,369.49727990000974,,369.48462020000443,369.49727990000974,370.49638879997656,370.49638879997656,370.49638879997656,370.49638879997656,370.49638879997656,371.49583639996126,371.49583639996126,373.0959514999995,z,1,1.5951451000291854,None,,,,,,,,,,,,,,,801544,001,2024-10-17_14h32.30.810,4.0 Motor Sequence Learning,2024.1.5,None,2024-10-17 14h33.02.628742 +0530,
-50,x,23,0,92,0,,,,,373.1107630999759,,373.0976575999521,373.1107630999759,374.1106171000283,374.1106171000283,374.1106171000283,374.1106171000283,374.1106171000283,375.1092466999544,375.1092466999544,376.6266790999798,c,0,1.5094413999468088,None,,,,,,,,,,,,,,,801544,001,2024-10-17_14h32.30.810,4.0 Motor Sequence Learning,2024.1.5,None,2024-10-17 14h33.02.628742 +0530,
150,v,23,1,93,1,,,,,376.6412827000022,,376.6283100999426,376.6412827000022,377.6406479999423,377.6406479999423,377.6406479999423,377.6406479999423,377.6406479999423,378.63940989994444,378.63940989994444,380.6057600999484,v,1,1.957784099970013,None,,,,,,,,,,,,,,,801544,001,2024-10-17_14h32.30.810,4.0 Motor Sequence Learning,2024.1.5,None,2024-10-17 14h33.02.628742 +0530,
50,c,23,2,94,2,,,,,380.62127629993483,,380.6070606999565,380.62127629993483,381.6210903999163,381.6210903999163,381.6210903999163,381.6210903999163,381.6210903999163,382.6201182999648,382.6201182999648,385.0694232999813,x,0,2.432193099986762,None,,,,,,,,,,,,,,,801544,001,2024-10-17_14h32.30.810,4.0 Motor Sequence Learning,2024.1.5,None,2024-10-17 14h33.02.628742 +0530,
-150,z,23,3,95,3,,,,,385.0844587999163,,385.0711970999837,385.0844587999163,386.08383549994323,386.08383549994323,386.08383549994323,386.08383549994323,386.08383549994323,387.08275009994395,387.08275009994395,389.5493791999761,z,1,2.464598699938506,None,,,,,,,,,,,,,,,801544,001,2024-10-17_14h32.30.810,4.0 Motor Sequence Learning,2024.1.5,None,2024-10-17 14h33.02.628742 +0530,
-50,x,24,0,96,0,,,,,389.5643523000181,,389.55113609996624,389.5643523000181,390.563368299976,390.563368299976,390.563368299976,390.563368299976,390.563368299976,391.56231980002485,391.56231980002485,393.12983500002883,c,0,1.5611762999324128,None,,,,,,,,,,,,,,,801544,001,2024-10-17_14h32.30.810,4.0 Motor Sequence Learning,2024.1.5,None,2024-10-17 14h33.02.628742 +0530,
150,v,24,1,97,1,,,,,393.1443977999734,,393.13159319991246,393.1443977999734,394.1437022999162,394.1437022999162,394.1437022999162,394.1437022999162,394.1437022999162,395.1427938999841,395.1427938999841,397.5259898999939,v,1,2.378626999910921,None,,,,,,,,,,,,,,,801544,001,2024-10-17_14h32.30.810,4.0 Motor Sequence Learning,2024.1.5,None,2024-10-17 14h33.02.628742 +0530,
50,c,24,2,98,2,,,,,397.540697599994,,397.52803519996814,397.540697599994,398.54005589999724,398.54005589999724,398.54005589999724,398.54005589999724,398.54005589999724,399.53948359994683,399.53948359994683,401.15640899993014,x,0,1.6136625999351963,None,,,,,,,,,,,,,,,801544,001,2024-10-17_14h32.30.810,4.0 Motor Sequence Learning,2024.1.5,None,2024-10-17 14h33.02.628742 +0530,
-150,z,24,3,99,3,,,,,401.1713891000254,,401.1581404999597,401.1713891000254,402.1704253000207,402.1704253000207,402.1704253000207,402.1704253000207,402.1870552999899,403.16953489999287,403.16953489999287,404.70282469992526,z,1,1.5167259000008926,None,,,,,,,,,,,,,,,801544,001,2024-10-17_14h32.30.810,4.0 Motor Sequence Learning,2024.1.5,None,2024-10-17 14h33.02.628742 +0530,
-50,x,25,0,100,0,,,,,404.71802489995025,,404.70461899996735,404.71802489995025,405.71772710001096,405.71772710001096,405.71772710001096,405.71772710001096,405.71772710001096,406.7169778000098,406.7169778000098,409.94914459995925,c,0,3.2258718999801204,None,,,,,,,,,,,,,,,801544,001,2024-10-17_14h32.30.810,4.0 Motor Sequence Learning,2024.1.5,None,2024-10-17 14h33.02.628742 +0530,
150,v,25,1,101,1,,,,,409.9640002999222,,409.95092099998146,409.9640002999222,410.9632581999758,410.9632581999758,410.9632581999758,410.9632581999758,410.9632581999758,411.963451199932,411.963451199932,413.7793685999932,v,1,1.801448000012897,None,,,,,,,,,,,,,,,801544,001,2024-10-17_14h32.30.810,4.0 Motor Sequence Learning,2024.1.5,None,2024-10-17 14h33.02.628742 +0530,
50,c,25,2,102,2,,,,,413.79428759997245,,413.7811381999636,413.79428759997245,414.7935156999156,414.7935156999156,414.7935156999156,414.7935156999156,414.7935156999156,415.79269279993605,415.79269279993605,417.5426502999617,x,0,1.7324418999487534,None,,,,,,,,,,,,,,,801544,001,2024-10-17_14h32.30.810,4.0 Motor Sequence Learning,2024.1.5,None,2024-10-17 14h33.02.628742 +0530,
-150,z,25,3,103,3,,,,,417.55783629999496,,417.54454869998153,417.55783629999496,418.55716099997517,418.55716099997517,418.55716099997517,418.55716099997517,418.55716099997517,419.55622729996685,419.55622729996685,421.5725056999363,z,1,2.01367990009021,None,,,,,,,,,,,,,,,801544,001,2024-10-17_14h32.30.810,4.0 Motor Sequence Learning,2024.1.5,None,2024-10-17 14h33.02.628742 +0530,
-50,x,26,0,104,0,,,,,421.5875394999748,,421.57436859991867,421.5875394999748,422.58720930002164,422.58720930002164,422.58720930002164,422.58720930002164,422.58720930002164,423.58629100001417,423.58629100001417,425.28610409994144,c,0,1.6866578999906778,None,,,,,,,,,,,,,,,801544,001,2024-10-17_14h32.30.810,4.0 Motor Sequence Learning,2024.1.5,None,2024-10-17 14h33.02.628742 +0530,
150,v,26,1,105,1,,,,,425.30158680002205,,425.2875305999769,425.30158680002205,426.30078389996197,426.30078389996197,426.30078389996197,426.30078389996197,426.30078389996197,427.2997460999759,427.2997460999759,429.34938859997783,v,1,2.0362012999830768,None,,,,,,,,,,,,,,,801544,001,2024-10-17_14h32.30.810,4.0 Motor Sequence Learning,2024.1.5,None,2024-10-17 14h33.02.628742 +0530,
50,c,26,2,106,2,,,,,429.3645349999424,,429.351412500022,429.3645349999424,430.3644007999683,430.3644007999683,430.3644007999683,430.3644007999683,430.3644007999683,431.36324360000435,431.36324360000435,432.8124360999791,x,0,1.4377485000295565,None,,,,,,,,,,,,,,,801544,001,2024-10-17_14h32.30.810,4.0 Motor Sequence Learning,2024.1.5,None,2024-10-17 14h33.02.628742 +0530,
-150,z,26,3,107,3,,,,,432.82826610002667,,432.8137348999735,432.82826610002667,433.82780019997153,433.82780019997153,433.82780019997153,433.82780019997153,433.82780019997153,434.82698879996315,434.82698879996315,436.67696790001355,z,1,1.8428969000233337,None,,,,,,,,,,,,,,,801544,001,2024-10-17_14h32.30.810,4.0 Motor Sequence Learning,2024.1.5,None,2024-10-17 14h33.02.628742 +0530,
-50,x,27,0,108,0,,,,,436.6919701999286,,436.6787777999416,436.6919701999286,437.6913961999817,437.6913961999817,437.6913961999817,437.6913961999817,437.6913961999817,438.69055309996475,438.69055309996475,440.92360290000215,c,0,2.225948700099252,None,,,,,,,,,,,,,,,801544,001,2024-10-17_14h32.30.810,4.0 Motor Sequence Learning,2024.1.5,None,2024-10-17 14h33.02.628742 +0530,
150,v,27,1,109,1,,,,,440.93851459992584,,440.925646699965,440.93851459992584,441.9379648999311,441.9379648999311,441.9379648999311,441.9379648999311,441.9379648999311,442.9369545999216,442.9369545999216,444.7037963999901,v,1,1.7532462999224663,None,,,,,,,,,,,,,,,801544,001,2024-10-17_14h32.30.810,4.0 Motor Sequence Learning,2024.1.5,None,2024-10-17 14h33.02.628742 +0530,
50,c,27,2,110,2,,,,,444.7186610000208,,444.70558589999564,444.7186610000208,445.71815329999663,445.71815329999663,445.71815329999663,445.71815329999663,445.71815329999663,446.7175197999459,446.7175197999459,448.0512254999485,x,0,1.3301144000142813,None,,,,,,,,,,,,,,,801544,001,2024-10-17_14h32.30.810,4.0 Motor Sequence Learning,2024.1.5,None,2024-10-17 14h33.02.628742 +0530,
-150,z,27,3,111,3,,,,,448.0663203999866,,448.0530250999145,448.0663203999866,449.06538980000187,449.06538980000187,449.06538980000187,449.06538980000187,449.06538980000187,450.0644114000024,450.0644114000024,451.61478920001537,z,1,1.5393033000873402,None,,,,,,,,,,,,,,,801544,001,2024-10-17_14h32.30.810,4.0 Motor Sequence Learning,2024.1.5,None,2024-10-17 14h33.02.628742 +0530,
-50,x,28,0,112,0,,,,,451.62961970001925,,451.6164365999866,451.62961970001925,452.6290790999774,452.6290790999774,452.6290790999774,452.6290790999774,452.6290790999774,453.6280731000006,453.6280731000006,455.9447220999282,c,0,2.2991379000013694,None,,,,,,,,,,,,,,,801544,001,2024-10-17_14h32.30.810,4.0 Motor Sequence Learning,2024.1.5,None,2024-10-17 14h33.02.628742 +0530,
150,v,28,1,113,1,,,,,455.95944609993603,,455.9465226000175,455.95944609993603,456.9587788999779,456.9587788999779,456.9587788999779,456.9587788999779,456.9587788999779,457.9579515999649,457.9579515999649,459.7251637999434,v,1,1.7622246999526396,None,,,,,,,,,,,,,,,801544,001,2024-10-17_14h32.30.810,4.0 Motor Sequence Learning,2024.1.5,None,2024-10-17 14h33.02.628742 +0530,
50,c,28,2,114,2,,,,,459.73988339991774,,459.7269060999388,459.73988339991774,460.7391612000065,460.7391612000065,460.7391612000065,460.7391612000065,460.7391612000065,461.73816209996585,461.73816209996585,463.4882418999914,x,0,1.7369406999787316,None,,,,,,,,,,,,,,,801544,001,2024-10-17_14h32.30.810,4.0 Motor Sequence Learning,2024.1.5,None,2024-10-17 14h33.02.628742 +0530,
-150,z,28,3,115,3,,,,,463.5034477999434,,463.4897988999728,463.5034477999434,464.5026598999975,464.5026598999975,464.5026598999975,464.5026598999975,464.5026598999975,465.50188210001215,465.50188210001215,467.3348821999971,z,1,1.8207179999444634,None,,,,,,,,,,,,,,,801544,001,2024-10-17_14h32.30.810,4.0 Motor Sequence Learning,2024.1.5,None,2024-10-17 14h33.02.628742 +0530,
-50,x,29,0,116,0,,,,,467.3499676999636,,467.33665269997437,467.3499676999636,468.3495560999727,468.3495560999727,468.3495560999727,468.3495560999727,468.3495560999727,469.3486359999515,469.3486359999515,471.1657048999332,c,0,1.8037736000260338,None,,,,,,,,,,,,,,,801544,001,2024-10-17_14h32.30.810,4.0 Motor Sequence Learning,2024.1.5,None,2024-10-17 14h33.02.628742 +0530,
150,v,29,1,117,1,,,,,471.180462099961,,471.16751169995405,471.180462099961,472.1796833999688,472.1796833999688,472.1796833999688,472.1796833999688,472.1796833999688,473.178641699953,473.178641699953,475.26222599996254,v,1,2.071649100049399,None,,,,,,,,,,,,,,,801544,001,2024-10-17_14h32.30.810,4.0 Motor Sequence Learning,2024.1.5,None,2024-10-17 14h33.02.628742 +0530,
50,c,29,2,118,2,,,,,475.27737030002754,,475.2638993000146,475.27737030002754,476.27622210001573,476.27622210001573,476.27622210001573,476.27622210001573,476.27622210001573,477.2753800000064,477.2753800000064,479.29192769993097,x,0,2.0033979000290856,None,,,,,,,,,,,,,,,801544,001,2024-10-17_14h32.30.810,4.0 Motor Sequence Learning,2024.1.5,None,2024-10-17 14h33.02.628742 +0530,
-150,z,29,3,119,3,,,,,479.3069416999351,,479.2937197999563,479.3069416999351,480.3064468000084,480.3064468000084,480.3064468000084,480.3064468000084,480.3064468000084,481.3053918000078,481.3053918000078,483.50474899995606,z,1,2.185362200019881,None,,,,,,,,,,,,,,,801544,001,2024-10-17_14h32.30.810,4.0 Motor Sequence Learning,2024.1.5,None,2024-10-17 14h33.02.628742 +0530,
-50,x,30,0,120,0,,,,,483.5194350000238,,483.50652099994477,483.5194350000238,484.5196820999263,484.5196820999263,484.5196820999263,484.5196820999263,484.5196820999263,485.5186087000184,485.5186087000184,487.65163209999446,c,0,2.1159507000120357,None,,,,,,,,,,,,,,,801544,001,2024-10-17_14h32.30.810,4.0 Motor Sequence Learning,2024.1.5,None,2024-10-17 14h33.02.628742 +0530,
150,v,30,1,121,1,,,,,487.6663524999749,,487.6534016999649,487.6663524999749,488.66604679997545,488.66604679997545,488.66604679997545,488.66604679997545,488.66604679997545,489.6651128999656,489.6651128999656,492.36462719994597,v,1,2.6886920999968424,None,,,,,,,,,,,,,,,801544,001,2024-10-17_14h32.30.810,4.0 Motor Sequence Learning,2024.1.5,None,2024-10-17 14h33.02.628742 +0530,
50,c,30,2,122,2,,,,,492.37975660001393,,492.3664071999956,492.37975660001393,493.3789281999925,493.3789281999925,493.3789281999925,493.3789281999925,493.3956735000247,494.37803469994105,494.37803469994105,495.9779647999676,x,0,1.582827200065367,None,,,,,,,,,,,,,,,801544,001,2024-10-17_14h32.30.810,4.0 Motor Sequence Learning,2024.1.5,None,2024-10-17 14h33.02.628742 +0530,
-150,z,30,3,123,3,,,,,495.99334019992966,,495.97974029998295,495.99334019992966,496.99270299996715,496.99270299996715,496.99270299996715,496.99270299996715,496.99270299996715,497.9915454000002,497.9915454000002,499.8249824999366,z,1,1.8241908000782132,None,,,,,,,,,,,,,,,801544,001,2024-10-17_14h32.30.810,4.0 Motor Sequence Learning,2024.1.5,None,2024-10-17 14h33.02.628742 +0530,
-50,x,31,0,124,0,,,,,499.8400460999692,,499.8267946999986,499.8400460999692,500.839334600023,500.839334600023,500.839334600023,500.839334600023,500.839334600023,501.83857139991596,501.83857139991596,503.3391316999914,c,0,1.4903140999376774,None,,,,,,,,,,,,,,,801544,001,2024-10-17_14h32.30.810,4.0 Motor Sequence Learning,2024.1.5,None,2024-10-17 14h33.02.628742 +0530,
150,v,31,1,125,1,,,,,503.35371549997944,,503.34107460000087,503.35371549997944,504.3532173000276,504.3532173000276,504.3532173000276,504.3532173000276,504.3532173000276,505.35230329993647,505.35230329993647,507.735431100009,v,1,2.3747358999680728,None,,,,,,,,,,,,,,,801544,001,2024-10-17_14h32.30.810,4.0 Motor Sequence Learning,2024.1.5,None,2024-10-17 14h33.02.628742 +0530,
50,c,31,2,126,2,,,,,507.7504379999591,,507.7372054000152,507.7504379999591,508.7498724999605,508.7498724999605,508.7498724999605,508.7498724999605,508.7498724999605,509.74933779996354,509.74933779996354,513.5139518999495,x,0,3.7599459000630304,None,,,,,,,,,,,,,,,801544,001,2024-10-17_14h32.30.810,4.0 Motor Sequence Learning,2024.1.5,None,2024-10-17 14h33.02.628742 +0530,
-150,z,31,3,127,3,,,,,513.529056499945,,513.5158105000155,513.529056499945,514.52859240002,514.52859240002,514.52859240002,514.52859240002,514.52859240002,515.5275062000146,515.5275062000146,517.0941886999644,z,1,1.5595387999201193,None,,,,,,,,,,,,,,,801544,001,2024-10-17_14h32.30.810,4.0 Motor Sequence Learning,2024.1.5,None,2024-10-17 14h33.02.628742 +0530,
-50,x,32,0,128,0,,,,,517.1091629000148,,517.0959344999865,517.1091629000148,518.1084609000245,518.1084609000245,518.1084609000245,518.1084609000245,518.1084609000245,519.1077514999779,519.1077514999779,521.2411393999355,c,0,2.1209997000405565,None,,,,,,,,,,,,,,,801544,001,2024-10-17_14h32.30.810,4.0 Motor Sequence Learning,2024.1.5,None,2024-10-17 14h33.02.628742 +0530,
150,v,32,1,129,1,,,,,521.2559835999273,,521.2429111999227,521.2559835999273,522.2550866999663,522.2550866999663,522.2550866999663,522.2550866999663,522.2550866999663,523.2547258000122,523.2547258000122,525.5043439000146,v,1,2.2372491999994963,None,,,,,,,,,,,,,,,801544,001,2024-10-17_14h32.30.810,4.0 Motor Sequence Learning,2024.1.5,None,2024-10-17 14h33.02.628742 +0530,
50,c,32,2,130,2,,,,,525.5190891999518,,525.5061071999371,525.5190891999518,526.5182274000254,526.5182274000254,526.5182274000254,526.5182274000254,526.5182274000254,527.517564299982,527.517564299982,529.2340301999357,x,0,1.7016911000246182,None,,,,,,,,,,,,,,,801544,001,2024-10-17_14h32.30.810,4.0 Motor Sequence Learning,2024.1.5,None,2024-10-17 14h33.02.628742 +0530,
-150,z,32,3,131,3,,,,,529.2491349999327,,529.2367178000277,529.2491349999327,530.24879959994,530.24879959994,530.24879959994,530.24879959994,530.24879959994,531.2476809999207,531.2476809999207,532.7818266999675,z,1,1.5304816000862047,None,,,,,,,,,,,,,,,801544,001,2024-10-17_14h32.30.810,4.0 Motor Sequence Learning,2024.1.5,None,2024-10-17 14h33.02.628742 +0530,
-50,x,33,0,132,0,,,,,532.7963319999399,,532.7833523999434,532.7963319999399,533.7956947999774,533.7956947999774,533.7956947999774,533.7956947999774,533.7956947999774,534.7945444999496,534.7945444999496,537.4613604999613,c,0,2.662244600011036,None,,,,,,,,,,,,,,,801544,001,2024-10-17_14h32.30.810,4.0 Motor Sequence Learning,2024.1.5,None,2024-10-17 14h33.02.628742 +0530,
150,v,33,1,133,1,,,,,537.4768426999217,,537.4632318000076,537.4768426999217,538.4751890000189,538.4751890000189,538.4751890000189,538.4751890000189,538.491678899969,539.4744391000131,539.4744391000131,541.3244653999573,v,1,1.841193599975668,None,,,,,,,,,,,,,,,801544,001,2024-10-17_14h32.30.810,4.0 Motor Sequence Learning,2024.1.5,None,2024-10-17 14h33.02.628742 +0530,
50,c,33,2,134,2,,,,,541.3395650999155,,541.3261887999251,541.3395650999155,542.3387723999331,542.3387723999331,542.3387723999331,542.3387723999331,542.3387723999331,543.3378968000179,543.3378968000179,546.0866534999805,x,0,2.7357164999702945,None,,,,,,,,,,,,,,,801544,001,2024-10-17_14h32.30.810,4.0 Motor Sequence Learning,2024.1.5,None,2024-10-17 14h33.02.628742 +0530,
-150,z,33,3,135,3,,,,,546.1022623999743,,546.0880675999215,546.1022623999743,547.1013802000089,547.1013802000089,547.1013802000089,547.1013802000089,547.1013802000089,548.100439999951,548.100439999951,549.9341599999461,z,1,1.8315135999582708,None,,,,,,,,,,,,,,,801544,001,2024-10-17_14h32.30.810,4.0 Motor Sequence Learning,2024.1.5,None,2024-10-17 14h33.02.628742 +0530,
-50,x,34,0,136,0,,,,,549.9489437999437,,549.9359853999922,549.9489437999437,550.9483392999973,550.9483392999973,550.9483392999973,550.9483392999973,550.9483392999973,551.947722199955,551.947722199955,553.113751100027,c,0,1.1553843999281526,None,,,,,,,,,,,,,,,801544,001,2024-10-17_14h32.30.810,4.0 Motor Sequence Learning,2024.1.5,None,2024-10-17 14h33.02.628742 +0530,
150,v,34,1,137,1,,,,,553.1296056999126,,553.1150574999629,553.1296056999126,554.1290477999719,554.1290477999719,554.1290477999719,554.1290477999719,554.1290477999719,555.1280492999358,555.1280492999358,557.4274192999583,v,1,2.2824291000142694,None,,,,,,,,,,,,,,,801544,001,2024-10-17_14h32.30.810,4.0 Motor Sequence Learning,2024.1.5,None,2024-10-17 14h33.02.628742 +0530,
50,c,34,2,138,2,,,,,557.4426328999689,,557.4291715999134,557.4426328999689,558.4423416999634,558.4423416999634,558.4423416999634,558.4423416999634,558.4423416999634,559.4412263999693,559.4412263999693,562.2077704999829,x,0,2.759758700034581,None,,,,,,,,,,,,,,,801544,001,2024-10-17_14h32.30.810,4.0 Motor Sequence Learning,2024.1.5,None,2024-10-17 14h33.02.628742 +0530,
-150,z,34,3,139,3,,,,,562.2224517000141,,562.2095514999237,562.2224517000141,563.2218227999983,563.2218227999983,563.2218227999983,563.2218227999983,563.2218227999983,564.2205239000032,564.2205239000032,565.7207549000159,z,1,1.489686300046742,None,,,,,,,,,,,,,,,801544,001,2024-10-17_14h32.30.810,4.0 Motor Sequence Learning,2024.1.5,None,2024-10-17 14h33.02.628742 +0530,
-50,x,35,0,140,0,,,,,565.7358538999688,,565.7225210999604,565.7358538999688,566.7354164000135,566.7354164000135,566.7354164000135,566.7354164000135,566.7354164000135,567.7346649999963,567.7346649999963,568.9356617999729,c,0,1.197132600005716,None,,,,,,,,,,,,,,,801544,001,2024-10-17_14h32.30.810,4.0 Motor Sequence Learning,2024.1.5,None,2024-10-17 14h33.02.628742 +0530,
150,v,35,1,141,1,,,,,568.9502908999566,,568.9374364999821,568.9502908999566,569.949578300002,569.949578300002,569.949578300002,569.949578300002,569.949578300002,570.9485499999719,570.9485499999719,572.8984390000114,v,1,1.9451687999535352,None,,,,,,,,,,,,,,,801544,001,2024-10-17_14h32.30.810,4.0 Motor Sequence Learning,2024.1.5,None,2024-10-17 14h33.02.628742 +0530,
50,c,35,2,142,2,,,,,572.9133991999552,,572.9000880999956,572.9133991999552,573.9126674999716,573.9126674999716,573.9126674999716,573.9126674999716,573.9126674999716,574.9119800999761,574.9119800999761,576.8956422000192,x,0,1.975071799941361,None,,,,,,,,,,,,,,,801544,001,2024-10-17_14h32.30.810,4.0 Motor Sequence Learning,2024.1.5,None,2024-10-17 14h33.02.628742 +0530,
-150,z,35,3,143,3,,,,,576.9099132999545,,576.8973862000275,576.9099132999545,577.9093625999521,577.9093625999521,577.9093625999521,577.9093625999521,577.9093625999521,578.9084808999905,578.9084808999905,580.2096757999389,z,1,1.2944003000156954,None,,,,,,,,,,,,,,,801544,001,2024-10-17_14h32.30.810,4.0 Motor Sequence Learning,2024.1.5,None,2024-10-17 14h33.02.628742 +0530,
-50,x,36,0,144,0,,,,,580.2241031000158,,580.2116620999295,580.2241031000158,581.2236897000112,581.2236897000112,581.2236897000112,581.2236897000112,581.2236897000112,582.2223972999491,582.2223972999491,583.9065189999528,c,0,1.6800087000010535,None,,,,,,,,,,,,,,,801544,001,2024-10-17_14h32.30.810,4.0 Motor Sequence Learning,2024.1.5,None,2024-10-17 14h33.02.628742 +0530,
150,v,36,1,145,1,,,,,583.9211639999412,,583.9083241999615,583.9211639999412,584.9204601999372,584.9204601999372,584.9204601999372,584.9204601999372,584.9204601999372,585.9197575999424,585.9197575999424,587.0038357999874,v,1,1.0797801000298932,None,,,,,,,,,,,,,,,801544,001,2024-10-17_14h32.30.810,4.0 Motor Sequence Learning,2024.1.5,None,2024-10-17 14h33.02.628742 +0530,
50,c,36,2,146,2,,,,,587.0185360999312,,587.0056370999664,587.0185360999312,588.0179689999204,588.0179689999204,588.0179689999204,588.0179689999204,588.0179689999204,589.0167393999873,589.0167393999873,590.7999562999466,x,0,1.7713317999150604,None,,,,,,,,,,,,,,,801544,001,2024-10-17_14h32.30.810,4.0 Motor Sequence Learning,2024.1.5,None,2024-10-17 14h33.02.628742 +0530,
-150,z,36,3,147,3,,,,,590.8152259999188,,590.8017227000091,590.8152259999188,591.8147419999586,591.8147419999586,591.8147419999586,591.8147419999586,591.8147419999586,592.8138342999155,592.8138342999155,594.6145285000093,z,1,1.79422959999647,None,,,,,,,,,,,,,,,801544,001,2024-10-17_14h32.30.810,4.0 Motor Sequence Learning,2024.1.5,None,2024-10-17 14h33.02.628742 +0530,
-50,x,37,0,148,0,,,,,594.628977800021,,594.6163129999768,594.628977800021,595.6282207999611,595.6282207999611,595.6282207999611,595.6282207999611,595.6282207999611,596.6274810999166,596.6274810999166,598.2108360999264,c,0,1.5785311999497935,None,,,,,,,,,,,,,,,801544,001,2024-10-17_14h32.30.810,4.0 Motor Sequence Learning,2024.1.5,None,2024-10-17 14h33.02.628742 +0530,
150,v,37,1,149,1,,,,,598.2259163999697,,598.2126060000155,598.2259163999697,599.225229499978,599.225229499978,599.225229499978,599.225229499978,599.225229499978,600.224250899977,600.224250899977,602.6742660999298,v,1,2.4388347999192774,None,,,,,,,,,,,,,,,801544,001,2024-10-17_14h32.30.810,4.0 Motor Sequence Learning,2024.1.5,None,2024-10-17 14h33.02.628742 +0530,
50,c,37,2,150,2,,,,,602.6889408000279,,602.6761560000014,602.6889408000279,603.6883446000284,603.6883446000284,603.6883446000284,603.6883446000284,603.6883446000284,604.6874066999881,604.6874066999881,608.9522865000181,x,0,4.254513199906796,None,,,,,,,,,,,,,,,801544,001,2024-10-17_14h32.30.810,4.0 Motor Sequence Learning,2024.1.5,None,2024-10-17 14h33.02.628742 +0530,
-150,z,37,3,151,3,,,,,608.9672854000237,,608.9541326999897,608.9672854000237,609.9661929999711,609.9661929999711,609.9661929999711,609.9661929999711,609.9830741999904,610.9655029999558,610.9655029999558,612.4993593000108,z,1,1.522984000039287,None,,,,,,,,,,,,,,,801544,001,2024-10-17_14h32.30.810,4.0 Motor Sequence Learning,2024.1.5,None,2024-10-17 14h33.02.628742 +0530,
-50,x,38,0,152,0,,,,,612.5144953000126,,612.5012208999833,612.5144953000126,613.5134432999184,613.5134432999184,613.5134432999184,613.5134432999184,613.5300985999638,614.512627499993,614.512627499993,615.7302298999857,c,0,1.2129439000273123,None,,,,,,,,,,,,,,,801544,001,2024-10-17_14h32.30.810,4.0 Motor Sequence Learning,2024.1.5,None,2024-10-17 14h33.02.628742 +0530,
150,v,38,1,153,1,,,,,615.7450127999764,,615.7319799999241,615.7450127999764,616.7440184999723,616.7440184999723,616.7440184999723,616.7440184999723,616.7440184999723,617.7433615999762,617.7433615999762,619.0774974999949,v,1,1.3316226000897586,None,,,,,,,,,,,,,,,801544,001,2024-10-17_14h32.30.810,4.0 Motor Sequence Learning,2024.1.5,None,2024-10-17 14h33.02.628742 +0530,
50,c,38,2,154,2,,,,,619.0921838999493,,619.0792989999754,619.0921838999493,620.0912622999167,620.0912622999167,620.0912622999167,620.0912622999167,620.0912622999167,621.0905197999673,621.0905197999673,622.4405161999166,x,0,1.3437097000423819,None,,,,,,,,,,,,,,,801544,001,2024-10-17_14h32.30.810,4.0 Motor Sequence Learning,2024.1.5,None,2024-10-17 14h33.02.628742 +0530,
-150,z,38,3,155,3,,,,,622.4560008000117,,622.4420139000285,622.4560008000117,623.4554576999508,623.4554576999508,623.4554576999508,623.4554576999508,623.4554576999508,624.4544292999199,624.4544292999199,626.1382975999732,z,1,1.667121300008148,None,,,,,,,,,,,,,,,801544,001,2024-10-17_14h32.30.810,4.0 Motor Sequence Learning,2024.1.5,None,2024-10-17 14h33.02.628742 +0530,
-50,x,39,0,156,0,,,,,626.1530538999941,,626.1400524999481,626.1530538999941,627.152211299981,627.152211299981,627.152211299981,627.152211299981,627.152211299981,628.1521534000058,628.1521534000058,629.6518357999157,c,0,1.4822317999787629,None,,,,,,,,,,,,,,,801544,001,2024-10-17_14h32.30.810,4.0 Motor Sequence Learning,2024.1.5,None,2024-10-17 14h33.02.628742 +0530,
150,v,39,1,157,1,,,,,629.6671039999928,,629.6533591999905,629.6671039999928,630.6663127000211,630.6663127000211,630.6663127000211,630.6663127000211,630.6829938999144,631.6651453999802,631.6651453999802,634.2148844000185,v,1,2.5447305999696255,None,,,,,,,,,,,,,,,801544,001,2024-10-17_14h32.30.810,4.0 Motor Sequence Learning,2024.1.5,None,2024-10-17 14h33.02.628742 +0530,
50,c,39,2,158,2,,,,,634.2298772999784,,634.2166773999343,634.2298772999784,635.2287830000278,635.2287830000278,635.2287830000278,635.2287830000278,635.2287830000278,636.2280423999764,636.2280423999764,637.9114833999192,x,0,1.6737025000620633,None,,,,,,,,,,,,,,,801544,001,2024-10-17_14h32.30.810,4.0 Motor Sequence Learning,2024.1.5,None,2024-10-17 14h33.02.628742 +0530,
-150,z,39,3,159,3,,,,,637.9265159999486,,637.9132545000175,637.9265159999486,638.925940599991,638.925940599991,638.925940599991,638.925940599991,638.925940599991,639.9252186999656,639.9252186999656,641.4089953999501,z,1,1.4731726000318304,None,,,,,,,,,,,,,,,801544,001,2024-10-17_14h32.30.810,4.0 Motor Sequence Learning,2024.1.5,None,2024-10-17 14h33.02.628742 +0530,
-50,x,40,0,160,0,,,,,641.4239057999803,,641.4107316000154,641.4239057999803,642.4238218999235,642.4238218999235,642.4238218999235,642.4238218999235,642.4238218999235,643.4227950000204,643.4227950000204,644.5900535000255,c,0,1.1598797999322414,None,,,,,,,,,,,,,,,801544,001,2024-10-17_14h32.30.810,4.0 Motor Sequence Learning,2024.1.5,None,2024-10-17 14h33.02.628742 +0530,
150,v,40,1,161,1,,,,,644.6044951999793,,644.591806499986,644.6044951999793,645.6038819999667,645.6038819999667,645.6038819999667,645.6038819999667,645.6038819999667,646.6027760999277,646.6027760999277,648.9531755999196,v,1,2.3483273000456393,None,,,,,,,,,,,,,,,801544,001,2024-10-17_14h32.30.810,4.0 Motor Sequence Learning,2024.1.5,None,2024-10-17 14h33.02.628742 +0530,
50,c,40,2,162,2,,,,,648.967644099961,,648.9549621000187,648.967644099961,649.9668258000165,649.9668258000165,649.9668258000165,649.9668258000165,649.9668258000165,650.9663266999414,650.9663266999414,652.01685549994,x,0,1.047973099979572,None,,,,,,,,,,,,,,,801544,001,2024-10-17_14h32.30.810,4.0 Motor Sequence Learning,2024.1.5,None,2024-10-17 14h33.02.628742 +0530,
-150,z,40,3,163,3,,,,,652.0316348000197,,652.0186424999265,652.0316348000197,653.0310376000125,653.0310376000125,653.0310376000125,653.0310376000125,653.0310376000125,654.0300201999489,654.0300201999489,655.630369600025,z,1,1.5923180999234319,None,,,,,,,,,,,,,,,801544,001,2024-10-17_14h32.30.810,4.0 Motor Sequence Learning,2024.1.5,None,2024-10-17 14h33.02.628742 +0530,
-50,x,41,0,164,0,,,,,655.6454377999762,,655.6321183999535,655.6454377999762,656.6448453000048,656.6448453000048,656.6448453000048,656.6448453000048,656.6448453000048,657.6440981000196,657.6440981000196,658.7108018000145,c,0,1.055877499980852,None,,,,,,,,,,,,,,,801544,001,2024-10-17_14h32.30.810,4.0 Motor Sequence Learning,2024.1.5,None,2024-10-17 14h33.02.628742 +0530,
150,v,41,1,165,1,,,,,658.7260991999647,,658.7127692999784,658.7260991999647,659.7256403999636,659.7256403999636,659.7256403999636,659.7256403999636,659.7256403999636,660.7247342999326,660.7247342999326,661.8585403999314,v,1,1.1262781999539584,None,,,,,,,,,,,,,,,801544,001,2024-10-17_14h32.30.810,4.0 Motor Sequence Learning,2024.1.5,None,2024-10-17 14h33.02.628742 +0530,
50,c,41,2,166,2,,,,,661.8736404000083,,661.8602852999466,661.8736404000083,662.8731141999597,662.8731141999597,662.8731141999597,662.8731141999597,662.8731141999597,663.8720465999795,663.8720465999795,665.0558805000037,x,0,1.170913599897176,None,,,,,,,,,,,,,,,801544,001,2024-10-17_14h32.30.810,4.0 Motor Sequence Learning,2024.1.5,None,2024-10-17 14h33.02.628742 +0530,
-150,z,41,3,167,3,,,,,665.0713760999497,,665.0576676999917,665.0713760999497,666.0701062999433,666.0701062999433,666.0701062999433,666.0701062999433,666.0868989999872,667.0695728999563,667.0695728999563,668.3196594999172,z,1,1.2380737999919802,None,,,,,,,,,,,,,,,801544,001,2024-10-17_14h32.30.810,4.0 Motor Sequence Learning,2024.1.5,None,2024-10-17 14h33.02.628742 +0530,
-50,x,42,0,168,0,,,,,668.3348285999382,,668.3214050999377,668.3348285999382,669.3345283999806,669.3345283999806,669.3345283999806,669.3345283999806,669.3345283999806,670.3334560999647,670.3334560999647,672.0840822999598,c,0,1.7345038000494242,None,,,,,,,,,,,,,,,801544,001,2024-10-17_14h32.30.810,4.0 Motor Sequence Learning,2024.1.5,None,2024-10-17 14h33.02.628742 +0530,
150,v,42,1,169,1,,,,,672.0990607999265,,672.0858362999279,672.0990607999265,673.0980438999832,673.0980438999832,673.0980438999832,673.0980438999832,673.1143409999786,674.0974225000245,674.0974225000245,676.6801896999823,v,1,2.576281200046651,None,,,,,,,,,,,,,,,801544,001,2024-10-17_14h32.30.810,4.0 Motor Sequence Learning,2024.1.5,None,2024-10-17 14h33.02.628742 +0530,
50,c,42,2,170,2,,,,,676.6948829999892,,676.6819461999694,676.6948829999892,677.6939734999323,677.6939734999323,677.6939734999323,677.6939734999323,677.6939734999323,678.6933636999456,678.6933636999456,680.0278033999493,x,0,1.3294081999920309,None,,,,,,,,,,,,,,,801544,001,2024-10-17_14h32.30.810,4.0 Motor Sequence Learning,2024.1.5,None,2024-10-17 14h33.02.628742 +0530,
-150,z,42,3,171,3,,,,,680.0422069999622,,680.0295555000193,680.0422069999622,681.0414046000224,681.0414046000224,681.0414046000224,681.0414046000224,681.0414046000224,682.0404422000283,682.0404422000283,683.7571782999439,z,1,1.7067920999834314,None,,,,,,,,,,,,,,,801544,001,2024-10-17_14h32.30.810,4.0 Motor Sequence Learning,2024.1.5,None,2024-10-17 14h33.02.628742 +0530,
-50,x,43,0,172,0,,,,,683.7722164000152,,683.758958099992,683.7722164000152,684.7715608999133,684.7715608999133,684.7715608999133,684.7715608999133,684.7715608999133,685.7706408000086,685.7706408000086,687.4539117999375,c,0,1.6742014000192285,None,,,,,,,,,,,,,,,801544,001,2024-10-17_14h32.30.810,4.0 Motor Sequence Learning,2024.1.5,None,2024-10-17 14h33.02.628742 +0530,
150,v,43,1,173,1,,,,,687.4692691999953,,687.4557014999446,687.4692691999953,688.4685651999898,688.4685651999898,688.4685651999898,688.4685651999898,688.4685651999898,689.4679362999741,689.4679362999741,691.0678790999809,v,1,1.5872445999411866,None,,,,,,,,,,,,,,,801544,001,2024-10-17_14h32.30.810,4.0 Motor Sequence Learning,2024.1.5,None,2024-10-17 14h33.02.628742 +0530,
50,c,43,2,174,2,,,,,691.0831784999464,,691.0693964000093,691.0831784999464,692.0823847999563,692.0823847999563,692.0823847999563,692.0823847999563,692.0823847999563,693.0809070999967,693.0809070999967,694.5487617999315,x,0,1.4559841000009328,None,,,,,,,,,,,,,,,801544,001,2024-10-17_14h32.30.810,4.0 Motor Sequence Learning,2024.1.5,None,2024-10-17 14h33.02.628742 +0530,
-150,z,43,3,175,3,,,,,694.563674199977,,694.5505382999545,694.563674199977,695.5626108000288,695.5626108000288,695.5626108000288,695.5626108000288,695.5626108000288,696.5621094999369,696.5621094999369,698.6117046999279,z,1,2.0360608000773937,None,,,,,,,,,,,,,,,801544,001,2024-10-17_14h32.30.810,4.0 Motor Sequence Learning,2024.1.5,None,2024-10-17 14h33.02.628742 +0530,
-50,x,44,0,176,0,,,,,698.6268091999227,,698.6134560999926,698.6268091999227,699.6261237999424,699.6261237999424,699.6261237999424,699.6261237999424,699.6261237999424,700.6252232999541,700.6252232999541,702.4751718000043,c,0,1.832917800056748,None,,,,,,,,,,,,,,,801544,001,2024-10-17_14h32.30.810,4.0 Motor Sequence Learning,2024.1.5,None,2024-10-17 14h33.02.628742 +0530,
150,v,44,1,177,1,,,,,702.4902004000032,,702.4772393999156,702.4902004000032,703.4894442999503,703.4894442999503,703.4894442999503,703.4894442999503,703.4894442999503,704.4885208000196,704.4885208000196,706.0221268999157,v,1,1.52883159997873,None,,,,,,,,,,,,,,,801544,001,2024-10-17_14h32.30.810,4.0 Motor Sequence Learning,2024.1.5,None,2024-10-17 14h33.02.628742 +0530,
50,c,44,2,178,2,,,,,706.037623399985,,706.023889199947,706.037623399985,707.0365648999577,707.0365648999577,707.0365648999577,707.0365648999577,707.0365648999577,708.0357053999323,708.0357053999323,709.9358157999814,x,0,1.8912306000711396,None,,,,,,,,,,,,,,,801544,001,2024-10-17_14h32.30.810,4.0 Motor Sequence Learning,2024.1.5,None,2024-10-17 14h33.02.628742 +0530,
-150,z,44,3,179,3,,,,,709.9504469999811,,709.9374711000128,709.9504469999811,710.9502455999609,710.9502455999609,710.9502455999609,710.9502455999609,710.9502455999609,711.9493695999263,711.9493695999263,713.6000580999535,z,1,1.6435471000149846,None,,,,,,,,,,,,,,,801544,001,2024-10-17_14h32.30.810,4.0 Motor Sequence Learning,2024.1.5,None,2024-10-17 14h33.02.628742 +0530,
-50,x,45,0,180,0,,,,,713.6145465999143,,713.6020075000124,713.6145465999143,714.6139732999727,714.6139732999727,714.6139732999727,714.6139732999727,714.6139732999727,715.6132594000082,715.6132594000082,717.2459497000091,c,0,1.6278124999953434,None,,,,,,,,,,,,,,,801544,001,2024-10-17_14h32.30.810,4.0 Motor Sequence Learning,2024.1.5,None,2024-10-17 14h33.02.628742 +0530,
150,v,45,1,181,1,,,,,717.2612267999211,,717.2473203999689,717.2612267999211,718.2609282999765,718.2609282999765,718.2609282999765,718.2609282999765,718.2609282999765,719.2593014999293,719.2593014999293,720.4275496000191,v,1,1.1617789999581873,None,,,,,,,,,,,,,,,801544,001,2024-10-17_14h32.30.810,4.0 Motor Sequence Learning,2024.1.5,None,2024-10-17 14h33.02.628742 +0530,
50,c,45,2,182,2,,,,,720.4424330999609,,720.4293404999189,720.4424330999609,721.4416012999136,721.4416012999136,721.4416012999136,721.4416012999136,721.4416012999136,722.4407422000077,722.4407422000077,723.5585771999322,x,0,1.102726300014183,None,,,,,,,,,,,,,,,801544,001,2024-10-17_14h32.30.810,4.0 Motor Sequence Learning,2024.1.5,None,2024-10-17 14h33.02.628742 +0530,
-150,z,45,3,183,3,,,,,723.5730964000104,,723.560329400003,723.5730964000104,724.5722019999521,724.5722019999521,724.5722019999521,724.5722019999521,724.5722019999521,725.5714204999385,725.5714204999385,727.5544613000238,z,1,1.9780289999907836,None,,,,,,,,,,,,,,,801544,001,2024-10-17_14h32.30.810,4.0 Motor Sequence Learning,2024.1.5,None,2024-10-17 14h33.02.628742 +0530,
-50,x,46,0,184,0,,,,,727.5692042999435,,727.5558163999813,727.5692042999435,728.5690423999913,728.5690423999913,728.5690423999913,728.5690423999913,728.5690423999913,729.5683079999872,729.5683079999872,730.8513904999709,c,0,1.2814815000165254,None,,,,,,,,,,,,,,,801544,001,2024-10-17_14h32.30.810,4.0 Motor Sequence Learning,2024.1.5,None,2024-10-17 14h33.02.628742 +0530,
150,v,46,1,185,1,,,,,730.8660593000241,,730.8529696000041,730.8660593000241,731.8661767999874,731.8661767999874,731.8661767999874,731.8661767999874,731.8661767999874,732.8652472000103,732.8652472000103,733.9830898999935,v,1,1.1134766999166459,None,,,,,,,,,,,,,,,801544,001,2024-10-17_14h32.30.810,4.0 Motor Sequence Learning,2024.1.5,None,2024-10-17 14h33.02.628742 +0530,
50,c,46,2,186,2,,,,,733.9976205999264,,733.984924599994,733.9976205999264,734.9969329999294,734.9969329999294,734.9969329999294,734.9969329999294,734.9969329999294,735.9962942999555,735.9962942999555,737.4967567999847,x,0,1.4936102000065148,None,,,,,,,,,,,,,,,801544,001,2024-10-17_14h32.30.810,4.0 Motor Sequence Learning,2024.1.5,None,2024-10-17 14h33.02.628742 +0530,
-150,z,46,3,187,3,,,,,737.511559400009,,737.4985155999893,737.511559400009,738.5108059999766,738.5108059999766,738.5108059999766,738.5108059999766,738.5108059999766,739.5098318000091,739.5098318000091,740.9105775000062,z,1,1.3975743000628427,None,,,,,,,,,,,,,,,801544,001,2024-10-17_14h32.30.810,4.0 Motor Sequence Learning,2024.1.5,None,2024-10-17 14h33.02.628742 +0530,
-50,x,47,0,188,0,,,,,740.925692699966,,740.9123840000248,740.925692699966,741.9247021999909,741.9247021999909,741.9247021999909,741.9247021999909,741.9412586999824,742.9229944000253,742.9229944000253,743.8582896000007,c,0,0.9270882999990135,None,,,,,,,,,,,,,,,801544,001,2024-10-17_14h32.30.810,4.0 Motor Sequence Learning,2024.1.5,None,2024-10-17 14h33.02.628742 +0530,
150,v,47,1,189,1,,,,,743.8730118999956,,743.8600415999535,743.8730118999956,744.8719214999583,744.8719214999583,744.8719214999583,744.8719214999583,744.8719214999583,745.8714700000128,745.8714700000128,747.3047504000133,v,1,1.4170378999551758,None,,,,,,,,,,,,,,,801544,001,2024-10-17_14h32.30.810,4.0 Motor Sequence Learning,2024.1.5,None,2024-10-17 14h33.02.628742 +0530,
50,c,47,2,190,2,,,,,747.3199211999308,,747.3060901999706,747.3199211999308,748.3200101000257,748.3200101000257,748.3200101000257,748.3200101000257,748.3200101000257,749.318579099956,749.318579099956,751.3517738999799,x,0,2.02767939993646,None,,,,,,,,,,,,,,,801544,001,2024-10-17_14h32.30.810,4.0 Motor Sequence Learning,2024.1.5,None,2024-10-17 14h33.02.628742 +0530,
-150,z,47,3,191,3,,,,,751.366762300022,,751.3535292999586,751.366762300022,752.3660174999386,752.3660174999386,752.3660174999386,752.3660174999386,752.3660174999386,753.3655735999346,753.3655735999346,754.9985599999782,z,1,1.630968099925667,None,,,,,,,,,,,,,,,801544,001,2024-10-17_14h32.30.810,4.0 Motor Sequence Learning,2024.1.5,None,2024-10-17 14h33.02.628742 +0530,
-50,x,48,0,192,0,,,,,755.0136659999844,,755.0002038999228,755.0136659999844,756.0130721000023,756.0130721000023,756.0130721000023,756.0130721000023,756.0130721000023,757.0123997000046,757.0123997000046,758.0466591999866,c,0,1.0168461999855936,None,,,,,,,,,,,,,,,801544,001,2024-10-17_14h32.30.810,4.0 Motor Sequence Learning,2024.1.5,None,2024-10-17 14h33.02.628742 +0530,
150,v,48,1,193,1,,,,,758.0620477999328,,758.0484422999434,758.0620477999328,759.0604238000233,759.0604238000233,759.0604238000233,759.0604238000233,759.0777264999924,760.0597463999875,760.0597463999875,762.4929508999921,v,1,2.4234626999823377,None,,,,,,,,,,,,,,,801544,001,2024-10-17_14h32.30.810,4.0 Motor Sequence Learning,2024.1.5,None,2024-10-17 14h33.02.628742 +0530,
50,c,48,2,194,2,,,,,762.5077889999375,,762.4947125000181,762.5077889999375,763.5070850999327,763.5070850999327,763.5070850999327,763.5070850999327,763.5070850999327,764.506214199937,764.506214199937,766.056107499986,x,0,1.5337979999603704,None,,,,,,,,,,,,,,,801544,001,2024-10-17_14h32.30.810,4.0 Motor Sequence Learning,2024.1.5,None,2024-10-17 14h33.02.628742 +0530,
-150,z,48,3,195,3,,,,,766.0713297999464,,766.0578928999603,766.0713297999464,767.070761699928,767.070761699928,767.070761699928,767.070761699928,767.070761699928,768.0692172999261,768.0692172999261,770.6191347999265,z,1,2.5357354000443593,None,,,,,,,,,,,,,,,801544,001,2024-10-17_14h32.30.810,4.0 Motor Sequence Learning,2024.1.5,None,2024-10-17 14h33.02.628742 +0530,
-50,x,49,0,196,0,,,,,770.6342607999686,,770.6206329999259,770.6342607999686,771.633707699948,771.633707699948,771.633707699948,771.633707699948,771.633707699948,772.6326359999366,772.6326359999366,773.9664537999779,c,0,1.3187899000477046,None,,,,,,,,,,,,,,,801544,001,2024-10-17_14h32.30.810,4.0 Motor Sequence Learning,2024.1.5,None,2024-10-17 14h33.02.628742 +0530,
150,v,49,1,197,1,,,,,773.9813005999895,,773.9682031000266,773.9813005999895,774.9804198999191,774.9804198999191,774.9804198999191,774.9804198999191,774.9804198999191,775.9797987999627,775.9797987999627,777.2141099999426,v,1,1.2266266000224277,None,,,,,,,,,,,,,,,801544,001,2024-10-17_14h32.30.810,4.0 Motor Sequence Learning,2024.1.5,None,2024-10-17 14h33.02.628742 +0530,
50,c,49,2,198,2,,,,,777.2290644999593,,777.2158626000164,777.2290644999593,778.2282786000287,778.2282786000287,778.2282786000287,778.2282786000287,778.2282786000287,779.2270817999961,779.2270817999961,780.3280854999321,x,0,1.0979213999817148,None,,,,,,,,,,,,,,,801544,001,2024-10-17_14h32.30.810,4.0 Motor Sequence Learning,2024.1.5,None,2024-10-17 14h33.02.628742 +0530,
-150,z,49,3,199,3,,,,,780.3429798999568,,780.3299303000094,780.3429798999568,781.3421062999405,781.3421062999405,781.3421062999405,781.3421062999405,781.3421062999405,782.3415021999972,782.3415021999972,783.308760899934,z,1,0.9505273000104353,None,,,,,,,,,,,,,,,801544,001,2024-10-17_14h32.30.810,4.0 Motor Sequence Learning,2024.1.5,None,2024-10-17 14h33.02.628742 +0530,
50,c,,,,,0,0,0,2,783.3268833999755,,,,,,,,,,,,,,,,783.3207443999127,783.3268833999755,784.3232739999657,784.3232739999657,784.3232739999657,784.3232739999657,784.3397614000132,785.3225225999486,785.3225225999486,787.3558453000151,x,0,2.029448200017214,None,801544,001,2024-10-17_14h32.30.810,4.0 Motor Sequence Learning,2024.1.5,None,2024-10-17 14h33.02.628742 +0530,
50,c,,,,,0,1,1,2,787.3706669999519,,,,,,,,,,,,,,,,787.3585773999803,787.3706669999519,788.3698006999912,788.3698006999912,788.3698006999912,788.3698006999912,788.3698006999912,789.3689361999277,789.3689361999277,790.3863083999604,x,0,1.0083031000103801,None,801544,001,2024-10-17_14h32.30.810,4.0 Motor Sequence Learning,2024.1.5,None,2024-10-17 14h33.02.628742 +0530,
150,v,,,,,0,2,2,1,790.401642999961,,,,,,,,,,,,,,,,790.3880788999377,790.401642999961,791.4005805000197,791.4005805000197,791.4005805000197,791.4005805000197,791.4005805000197,792.3995789999608,792.3995789999608,793.7834399000276,v,1,1.3719964999472722,None,801544,001,2024-10-17_14h32.30.810,4.0 Motor Sequence Learning,2024.1.5,None,2024-10-17 14h33.02.628742 +0530,
-50,x,,,,,0,3,3,0,793.7984201000072,,,,,,,,,,,,,,,,793.7852875000099,793.7984201000072,794.7980083000148,794.7980083000148,794.7980083000148,794.7980083000148,794.7980083000148,795.7971841000253,795.7971841000253,797.5802399999229,c,0,1.7703222000272945,None,801544,001,2024-10-17_14h32.30.810,4.0 Motor Sequence Learning,2024.1.5,None,2024-10-17 14h33.02.628742 +0530,
50,c,,,,,1,0,4,2,797.5955085000023,,,,,,,,,,,,,,,,797.5817867999431,797.5955085000023,798.5947757000104,798.5947757000104,798.5947757000104,798.5947757000104,798.5947757000104,799.5940854999935,799.5940854999935,800.910734099918,x,0,1.2991523999953642,None,801544,001,2024-10-17_14h32.30.810,4.0 Motor Sequence Learning,2024.1.5,None,2024-10-17 14h33.02.628742 +0530,
50,c,,,,,1,1,5,2,800.9259266000008,,,,,,,,,,,,,,,,800.9124915000284,800.9259266000008,801.9254142999416,801.9254142999416,801.9254142999416,801.9254142999416,801.9254142999416,802.9246014999226,802.9246014999226,804.2248730999418,x,0,1.2954928999533877,None,801544,001,2024-10-17_14h32.30.810,4.0 Motor Sequence Learning,2024.1.5,None,2024-10-17 14h33.02.628742 +0530,
50,c,,,,,1,2,6,2,804.240106799989,,,,,,,,,,,,,,,,804.2266832999885,804.240106799989,805.2394406999229,805.2394406999229,805.2394406999229,805.2394406999229,805.2394406999229,806.2384917999152,806.2384917999152,806.9560613000067,x,0,0.7071008000057191,None,801544,001,2024-10-17_14h32.30.810,4.0 Motor Sequence Learning,2024.1.5,None,2024-10-17 14h33.02.628742 +0530,
-50,x,,,,,1,3,7,0,806.970915599959,,,,,,,,,,,,,,,,806.9578621999826,806.970915599959,807.9703488999512,807.9703488999512,807.9703488999512,807.9703488999512,807.9703488999512,808.969387399964,808.969387399964,810.5531866999809,c,0,1.5663483999669552,None,801544,001,2024-10-17_14h32.30.810,4.0 Motor Sequence Learning,2024.1.5,None,2024-10-17 14h33.02.628742 +0530,
50,c,,,,,2,0,8,2,810.5683888000203,,,,,,,,,,,,,,,,810.5553986999439,810.5683888000203,811.5675628000172,811.5675628000172,811.5675628000172,811.5675628000172,811.5675628000172,812.5665032999823,812.5665032999823,813.9166979999281,x,0,1.3476605000905693,None,801544,001,2024-10-17_14h32.30.810,4.0 Motor Sequence Learning,2024.1.5,None,2024-10-17 14h33.02.628742 +0530,
150,v,,,,,2,1,9,1,813.9318216999527,,,,,,,,,,,,,,,,813.9184560999274,813.9318216999527,814.931395499967,814.931395499967,814.931395499967,814.931395499967,814.931395499967,815.9303477000212,815.9303477000212,817.1808805000037,v,1,1.2393466000212356,None,801544,001,2024-10-17_14h32.30.810,4.0 Motor Sequence Learning,2024.1.5,None,2024-10-17 14h33.02.628742 +0530,
150,v,,,,,2,2,10,1,817.1963254999137,,,,,,,,,,,,,,,,817.1827064999379,817.1963254999137,818.1952903999481,818.1952903999481,818.1952903999481,818.1952903999481,818.2116947999457,819.1939431999344,819.1939431999344,820.3116196999326,v,1,1.1050681000342593,None,801544,001,2024-10-17_14h32.30.810,4.0 Motor Sequence Learning,2024.1.5,None,2024-10-17 14h33.02.628742 +0530,
150,v,,,,,2,3,11,1,820.3267040000064,,,,,,,,,,,,,,,,820.3136351000285,820.3267040000064,821.3263100999175,821.3263100999175,821.3263100999175,821.3263100999175,821.3263100999175,822.3251762000145,822.3251762000145,823.3095300999703,v,1,0.9772315999725834,None,801544,001,2024-10-17_14h32.30.810,4.0 Motor Sequence Learning,2024.1.5,None,2024-10-17 14h33.02.628742 +0530,
50,c,,,,,3,0,12,2,823.3244834999787,,,,,,,,,,,,,,,,823.3112804000266,823.3244834999787,824.323736499995,824.323736499995,824.323736499995,824.323736499995,824.340292399982,825.3231760999188,825.3231760999188,826.590123699978,x,0,1.2566383000230417,None,801544,001,2024-10-17_14h32.30.810,4.0 Motor Sequence Learning,2024.1.5,None,2024-10-17 14h33.02.628742 +0530,
150,v,,,,,3,1,13,1,826.6052154999925,,,,,,,,,,,,,,,,826.5919181000208,826.6052154999925,827.6041937000118,827.6041937000118,827.6041937000118,827.6041937000118,827.6041937000118,828.6033337999834,828.6033337999834,829.7205204999773,v,1,1.1062368999700993,None,801544,001,2024-10-17_14h32.30.810,4.0 Motor Sequence Learning,2024.1.5,None,2024-10-17 14h33.02.628742 +0530,
50,c,,,,,3,2,14,2,829.7358962999424,,,,,,,,,,,,,,,,829.7221362999408,829.7358962999424,830.734810099937,830.734810099937,830.734810099937,830.734810099937,830.734810099937,831.7340995999984,831.7340995999984,832.8679988000076,x,0,1.130152600002475,None,801544,001,2024-10-17_14h32.30.810,4.0 Motor Sequence Learning,2024.1.5,None,2024-10-17 14h33.02.628742 +0530,
50,c,,,,,3,3,15,2,832.8829456999665,,,,,,,,,,,,,,,,832.8699483999517,832.8829456999665,833.8824356999248,833.8824356999248,833.8824356999248,833.8824356999248,833.8824356999248,834.8815614000196,834.8815614000196,835.9821826999541,x,0,1.0947110999841243,None,801544,001,2024-10-17_14h32.30.810,4.0 Motor Sequence Learning,2024.1.5,None,2024-10-17 14h33.02.628742 +0530,
150,v,,,,,4,0,16,1,835.9970937999897,,,,,,,,,,,,,,,,835.9839887999697,835.9970937999897,836.9964675999945,836.9964675999945,836.9964675999945,836.9964675999945,836.9964675999945,837.9957973000128,837.9957973000128,839.5290963000152,v,1,1.5237856999738142,None,801544,001,2024-10-17_14h32.30.810,4.0 Motor Sequence Learning,2024.1.5,None,2024-10-17 14h33.02.628742 +0530,
-50,x,,,,,4,1,17,0,839.5441651999718,,,,,,,,,,,,,,,,839.5309230999555,839.5441651999718,840.5438210000284,840.5438210000284,840.5438210000284,840.5438210000284,840.5438210000284,841.5428437999217,841.5428437999217,843.2758730999194,c,0,1.7233891000505537,None,801544,001,2024-10-17_14h32.30.810,4.0 Motor Sequence Learning,2024.1.5,None,2024-10-17 14h33.02.628742 +0530,
150,v,,,,,4,2,18,1,843.2908848000225,,,,,,,,,,,,,,,,843.277621999965,843.2908848000225,844.2905198999215,844.2905198999215,844.2905198999215,844.2905198999215,844.2905198999215,845.2895657999907,845.2895657999907,847.7395253999857,v,1,2.44559339992702,None,801544,001,2024-10-17_14h32.30.810,4.0 Motor Sequence Learning,2024.1.5,None,2024-10-17 14h33.02.628742 +0530,
150,v,,,,,4,3,19,1,847.7543909000233,,,,,,,,,,,,,,,,847.741360199987,847.7543909000233,848.7534386999905,848.7534386999905,848.7534386999905,848.7534386999905,848.7534386999905,849.7526164000155,849.7526164000155,850.7033595999237,v,1,0.9363018999574706,None,801544,001,2024-10-17_14h32.30.810,4.0 Motor Sequence Learning,2024.1.5,None,2024-10-17 14h33.02.628742 +0530,
150,v,,,,,5,0,20,1,850.7183558000252,,,,,,,,,,,,,,,,850.7053640999366,850.7183558000252,851.7178321999963,851.7178321999963,851.7178321999963,851.7178321999963,851.7178321999963,852.7170369999949,852.7170369999949,853.7009341999656,v,1,0.9688746999017894,None,801544,001,2024-10-17_14h32.30.810,4.0 Motor Sequence Learning,2024.1.5,None,2024-10-17 14h33.02.628742 +0530,
150,v,,,,,5,1,21,1,853.7164691999787,,,,,,,,,,,,,,,,853.7024609999498,853.7164691999787,854.7152264999459,854.7152264999459,854.7152264999459,854.7152264999459,854.7152264999459,855.7144806999713,855.7144806999713,856.5320148000028,v,1,0.8085185000672936,None,801544,001,2024-10-17_14h32.30.810,4.0 Motor Sequence Learning,2024.1.5,None,2024-10-17 14h33.02.628742 +0530,
50,c,,,,,5,2,22,2,856.5470895000035,,,,,,,,,,,,,,,,856.5337970999535,856.5470895000035,857.545989700011,857.545989700011,857.545989700011,857.545989700011,857.545989700011,858.5456568999216,858.5456568999216,860.9610873999773,x,0,2.4069808000931516,None,801544,001,2024-10-17_14h32.30.810,4.0 Motor Sequence Learning,2024.1.5,None,2024-10-17 14h33.02.628742 +0530,
150,v,,,,,5,3,23,1,860.9763976000249,,,,,,,,,,,,,,,,860.9627738000127,860.9763976000249,861.97596229997,861.97596229997,861.97596229997,861.97596229997,861.97596229997,862.9751222999766,862.9751222999766,865.1578952999553,v,1,2.168921999982558,None,801544,001,2024-10-17_14h32.30.810,4.0 Motor Sequence Learning,2024.1.5,None,2024-10-17 14h33.02.628742 +0530,
-150,z,,,,,6,0,24,3,865.173047499964,,,,,,,,,,,,,,,,865.1599425999448,865.173047499964,866.1726164999418,866.1726164999418,866.1726164999418,866.1726164999418,866.1726164999418,867.1715805999702,867.1715805999702,868.356175999972,z,1,1.1778756000567228,None,801544,001,2024-10-17_14h32.30.810,4.0 Motor Sequence Learning,2024.1.5,None,2024-10-17 14h33.02.628742 +0530,
-150,z,,,,,6,1,25,3,868.3704518999439,,,,,,,,,,,,,,,,868.3582550999708,868.3704518999439,869.369799499982,869.369799499982,869.369799499982,869.369799499982,869.369799499982,870.3690422999207,870.3690422999207,871.4032400000142,z,1,1.016762200044468,None,801544,001,2024-10-17_14h32.30.810,4.0 Motor Sequence Learning,2024.1.5,None,2024-10-17 14h33.02.628742 +0530,
-150,z,,,,,6,2,26,3,871.4182312999619,,,,,,,,,,,,,,,,871.4052520999685,871.4182312999619,872.417336500017,872.417336500017,872.417336500017,872.417336500017,872.417336500017,873.416676199995,873.416676199995,874.3007691999665,z,1,0.8755322000943124,None,801544,001,2024-10-17_14h32.30.810,4.0 Motor Sequence Learning,2024.1.5,None,2024-10-17 14h33.02.628742 +0530,
150,v,,,,,6,3,27,1,874.3154213000089,,,,,,,,,,,,,,,,874.3025645000162,874.3154213000089,875.3150794999674,875.3150794999674,875.3150794999674,875.3150794999674,875.3150794999674,876.3141321999719,876.3141321999719,877.4151793000055,v,1,1.0924223000183702,None,801544,001,2024-10-17_14h32.30.810,4.0 Motor Sequence Learning,2024.1.5,None,2024-10-17 14h33.02.628742 +0530,
150,v,,,,,7,0,28,1,877.4306699999142,,,,,,,,,,,,,,,,877.4169607999502,877.4306699999142,878.4295955999987,878.4295955999987,878.4295955999987,878.4295955999987,878.4460282999789,879.428315200028,879.428315200028,880.1961622999515,v,1,0.7646048000315204,None,801544,001,2024-10-17_14h32.30.810,4.0 Motor Sequence Learning,2024.1.5,None,2024-10-17 14h33.02.628742 +0530,
150,v,,,,,7,1,29,1,880.2110059999395,,,,,,,,,,,,,,,,880.1981417000061,880.2110059999395,881.2101621999172,881.2101621999172,881.2101621999172,881.2101621999172,881.2101621999172,882.2092828999739,882.2092828999739,882.976847999962,v,1,0.7644869000650942,None,801544,001,2024-10-17_14h32.30.810,4.0 Motor Sequence Learning,2024.1.5,None,2024-10-17 14h33.02.628742 +0530,
-150,z,,,,,7,2,30,3,882.991827199934,,,,,,,,,,,,,,,,882.9785911999643,882.991827199934,883.99108539999,883.99108539999,883.99108539999,883.99108539999,883.99108539999,884.990938999923,884.990938999923,886.1573857999174,z,1,1.1566640000091866,None,801544,001,2024-10-17_14h32.30.810,4.0 Motor Sequence Learning,2024.1.5,None,2024-10-17 14h33.02.628742 +0530,
150,v,,,,,7,3,31,1,886.1724951999495,,,,,,,,,,,,,,,,886.1595793999732,886.1724951999495,887.1712592999684,887.1712592999684,887.1712592999684,887.1712592999684,887.1712592999684,888.1713046999648,888.1713046999648,889.0718887000112,v,1,0.8977586000692099,None,801544,001,2024-10-17_14h32.30.810,4.0 Motor Sequence Learning,2024.1.5,None,2024-10-17 14h33.02.628742 +0530,
150,v,,,,,8,0,32,1,889.0865976000205,,,,,,,,,,,,,,,,889.0733381999889,889.0865976000205,890.0864806999452,890.0864806999452,890.0864806999452,890.0864806999452,890.0864806999452,891.0850422999356,891.0850422999356,891.9358880999498,v,1,0.8338362000649795,None,801544,001,2024-10-17_14h32.30.810,4.0 Motor Sequence Learning,2024.1.5,None,2024-10-17 14h33.02.628742 +0530,
-150,z,,,,,8,1,33,3,891.9513332999777,,,,,,,,,,,,,,,,891.9374403000111,891.9513332999777,892.950499999919,892.950499999919,892.950499999919,892.950499999919,892.950499999919,893.9497161000036,893.9497161000036,894.900448899949,z,1,0.9416822999482974,None,801544,001,2024-10-17_14h32.30.810,4.0 Motor Sequence Learning,2024.1.5,None,2024-10-17 14h33.02.628742 +0530,
50,c,,,,,8,2,34,2,894.9154988999944,,,,,,,,,,,,,,,,894.9022306000115,894.9154988999944,895.9147497999948,895.9147497999948,895.9147497999948,895.9147497999948,895.9147497999948,896.9135770999128,896.9135770999128,899.6635490999324,x,0,2.7320396000286564,None,801544,001,2024-10-17_14h32.30.810,4.0 Motor Sequence Learning,2024.1.5,None,2024-10-17 14h33.02.628742 +0530,
-150,z,,,,,8,3,35,3,899.6783031999366,,,,,,,,,,,,,,,,899.6652389999945,899.6783031999366,900.6776030999608,900.6776030999608,900.6776030999608,900.6776030999608,900.6776030999608,901.6767542000161,901.6767542000161,902.66106329998,z,1,0.9724392000352964,None,801544,001,2024-10-17_14h32.30.810,4.0 Motor Sequence Learning,2024.1.5,None,2024-10-17 14h33.02.628742 +0530,
150,v,,,,,9,0,36,1,902.675914100022,,,,,,,,,,,,,,,,902.6628596999217,902.675914100022,903.6750859000022,903.6750859000022,903.6750859000022,903.6750859000022,903.6750859000022,904.6743342999835,904.6743342999835,905.6244863999309,v,1,0.93673439999111,None,801544,001,2024-10-17_14h32.30.810,4.0 Motor Sequence Learning,2024.1.5,None,2024-10-17 14h33.02.628742 +0530,
150,v,,,,,9,1,37,1,905.6397193999728,,,,,,,,,,,,,,,,905.6265142000047,905.6397193999728,906.639327300014,906.639327300014,906.639327300014,906.639327300014,906.639327300014,907.638360699988,907.638360699988,908.8048574000131,v,1,1.1566297999816015,None,801544,001,2024-10-17_14h32.30.810,4.0 Motor Sequence Learning,2024.1.5,None,2024-10-17 14h33.02.628742 +0530,
-50,x,,,,,9,2,38,0,908.820532499929,,,,,,,,,,,,,,,,908.8061767999316,908.820532499929,909.8204530000221,909.8204530000221,909.8204530000221,909.8204530000221,909.8204530000221,910.8190976999467,910.8190976999467,912.336612700019,c,0,1.5119167999364436,None,801544,001,2024-10-17_14h32.30.810,4.0 Motor Sequence Learning,2024.1.5,None,2024-10-17 14h33.02.628742 +0530,
50,c,,,,,9,3,39,2,912.3512000999181,,,,,,,,,,,,,,,,912.3381357999751,912.3512000999181,913.3504174000118,913.3504174000118,913.3504174000118,913.3504174000118,913.3504174000118,914.3495724999812,914.3495724999812,915.5502074999968,x,0,1.1964635000331327,None,801544,001,2024-10-17_14h32.30.810,4.0 Motor Sequence Learning,2024.1.5,None,2024-10-17 14h33.02.628742 +0530,
-50,x,,,,,10,0,40,0,915.5651018000208,,,,,,,,,,,,,,,,915.5520486999303,915.5651018000208,916.5641927999677,916.5641927999677,916.5641927999677,916.5641927999677,916.5641927999677,917.5631252999883,917.5631252999883,919.4801440999145,c,0,1.9018467999994755,None,801544,001,2024-10-17_14h32.30.810,4.0 Motor Sequence Learning,2024.1.5,None,2024-10-17 14h33.02.628742 +0530,
-150,z,,,,,10,1,41,3,919.49485249992,,,,,,,,,,,,,,,,919.481944900006,919.49485249992,920.494526399998,920.494526399998,920.494526399998,920.494526399998,920.494526399998,921.4939502999187,921.4939502999187,922.7440521999961,z,1,1.2431030999869108,None,801544,001,2024-10-17_14h32.30.810,4.0 Motor Sequence Learning,2024.1.5,None,2024-10-17 14h33.02.628742 +0530,
-50,x,,,,,10,2,42,0,922.7591126000043,,,,,,,,,,,,,,,,922.7458073999733,922.7591126000043,923.7583426999627,923.7583426999627,923.7583426999627,923.7583426999627,923.7583426999627,924.7575694000116,924.7575694000116,926.841244100011,c,0,2.078611599979922,None,801544,001,2024-10-17_14h32.30.810,4.0 Motor Sequence Learning,2024.1.5,None,2024-10-17 14h33.02.628742 +0530,
-150,z,,,,,10,3,43,3,926.855871399981,,,,,,,,,,,,,,,,926.8432033000281,926.855871399981,927.8551186999539,927.8551186999539,927.8551186999539,927.8551186999539,927.8551186999539,928.8542996000033,928.8542996000033,929.7887619999237,z,1,0.9192008000100031,None,801544,001,2024-10-17_14h32.30.810,4.0 Motor Sequence Learning,2024.1.5,None,2024-10-17 14h33.02.628742 +0530,
-150,z,,,,,11,0,44,3,929.8032891999464,,,,,,,,,,,,,,,,929.7907906000037,929.8032891999464,930.8028185999719,930.8028185999719,930.8028185999719,930.8028185999719,930.8028185999719,931.8021367000183,931.8021367000183,932.7862650000025,z,1,0.9707814001012594,None,801544,001,2024-10-17_14h32.30.810,4.0 Motor Sequence Learning,2024.1.5,None,2024-10-17 14h33.02.628742 +0530,
150,v,,,,,11,1,45,1,932.8008809000021,,,,,,,,,,,,,,,,932.7880369999912,932.8008809000021,933.8002728999127,933.8002728999127,933.8002728999127,933.8002728999127,933.8002728999127,934.7992466000142,934.7992466000142,936.4833109999308,v,1,1.680053299991414,None,801544,001,2024-10-17_14h32.30.810,4.0 Motor Sequence Learning,2024.1.5,None,2024-10-17 14h33.02.628742 +0530,
-50,x,,,,,11,2,46,0,936.4981412999332,,,,,,,,,,,,,,,,936.4854623000138,936.4981412999332,937.4972762999823,937.4972762999823,937.4972762999823,937.4972762999823,937.4972762999823,938.4964305999456,938.4964305999456,940.2299267000053,c,0,1.7175627000397071,None,801544,001,2024-10-17_14h32.30.810,4.0 Motor Sequence Learning,2024.1.5,None,2024-10-17 14h33.02.628742 +0530,
-150,z,,,,,11,3,47,3,940.2448855999392,,,,,,,,,,,,,,,,940.2316644999664,940.2448855999392,941.24433269992,941.24433269992,941.24433269992,941.24433269992,941.24433269992,942.243330599973,942.243330599973,943.3783955000108,z,1,1.1288323000771925,None,801544,001,2024-10-17_14h32.30.810,4.0 Motor Sequence Learning,2024.1.5,None,2024-10-17 14h33.02.628742 +0530,
-150,z,,,,,12,0,48,3,943.3921710000141,,,,,,,,,,,,,,,,943.3801726999227,943.3921710000141,944.3914856999181,944.3914856999181,944.3914856999181,944.3914856999181,944.3914856999181,945.390679199947,945.390679199947,946.3079419999849,z,1,0.9030460000503808,None,801544,001,2024-10-17_14h32.30.810,4.0 Motor Sequence Learning,2024.1.5,None,2024-10-17 14h33.02.628742 +0530,
150,v,,,,,12,1,49,1,946.3230440999614,,,,,,,,,,,,,,,,946.3097141999751,946.3230440999614,947.3224539000075,947.3224539000075,947.3224539000075,947.3224539000075,947.3224539000075,948.321600999916,948.321600999916,949.571998899919,v,1,1.2362495999550447,None,801544,001,2024-10-17_14h32.30.810,4.0 Motor Sequence Learning,2024.1.5,None,2024-10-17 14h33.02.628742 +0530,
-150,z,,,,,12,2,50,3,949.5870878000278,,,,,,,,,,,,,,,,949.5738253999734,949.5870878000278,950.5870952999685,950.5870952999685,950.5870952999685,950.5870952999685,950.5870952999685,951.5858892999822,951.5858892999822,952.7365735999774,z,1,1.1488420000532642,None,801544,001,2024-10-17_14h32.30.810,4.0 Motor Sequence Learning,2024.1.5,None,2024-10-17 14h33.02.628742 +0530,
-50,x,,,,,12,3,51,0,952.7511887999717,,,,,,,,,,,,,,,,952.7383337999927,952.7511887999717,953.7506452000234,953.7506452000234,953.7506452000234,953.7506452000234,953.7506452000234,954.7498278999701,954.7498278999701,956.2834690000163,c,0,1.5301900999620557,None,801544,001,2024-10-17_14h32.30.810,4.0 Motor Sequence Learning,2024.1.5,None,2024-10-17 14h33.02.628742 +0530,
-50,x,,,,,13,0,52,0,956.2983933999203,,,,,,,,,,,,,,,,956.2854347999673,956.2983933999203,957.297576699988,957.297576699988,957.297576699988,957.297576699988,957.297576699988,958.2968803999247,958.2968803999247,961.3623017999344,c,0,3.0504162000725046,None,801544,001,2024-10-17_14h32.30.810,4.0 Motor Sequence Learning,2024.1.5,None,2024-10-17 14h33.02.628742 +0530,
50,c,,,,,13,1,53,2,961.3783351000166,,,,,,,,,,,,,,,,961.3641456000041,961.3783351000166,962.3769899000181,962.3769899000181,962.3769899000181,962.3769899000181,962.3934961999767,963.3759435999673,963.3759435999673,967.5911483999807,x,0,4.209734999923967,None,801544,001,2024-10-17_14h32.30.810,4.0 Motor Sequence Learning,2024.1.5,None,2024-10-17 14h33.02.628742 +0530,
50,c,,,,,13,2,54,2,967.6057761999546,,,,,,,,,,,,,,,,967.5929473999422,967.6057761999546,968.6049785999348,968.6049785999348,968.6049785999348,968.6049785999348,968.6049785999348,969.6042268999154,969.6042268999154,972.0868544999976,x,0,2.478038499946706,None,801544,001,2024-10-17_14h32.30.810,4.0 Motor Sequence Learning,2024.1.5,None,2024-10-17 14h33.02.628742 +0530,
-150,z,,,,,13,3,55,3,972.1018483999651,,,,,,,,,,,,,,,,972.0889553999295,972.1018483999651,973.1013140999712,973.1013140999712,973.1013140999712,973.1013140999712,973.1013140999712,974.1006861999631,974.1006861999631,976.0841120999539,z,1,1.9749514000723138,None,801544,001,2024-10-17_14h32.30.810,4.0 Motor Sequence Learning,2024.1.5,None,2024-10-17 14h33.02.628742 +0530,
-50,x,,,,,14,0,56,0,976.0990516999736,,,,,,,,,,,,,,,,976.0859446999384,976.0990516999736,977.098236199934,977.098236199934,977.098236199934,977.098236199934,977.1146743999561,978.0971747000003,978.0971747000003,979.6138860000065,c,0,1.504334699944593,None,801544,001,2024-10-17_14h32.30.810,4.0 Motor Sequence Learning,2024.1.5,None,2024-10-17 14h33.02.628742 +0530,
150,v,,,,,14,1,57,1,979.6289525999455,,,,,,,,,,,,,,,,979.6156664999435,979.6289525999455,980.6285012000008,980.6285012000008,980.6285012000008,980.6285012000008,980.6285012000008,981.6276510999305,981.6276510999305,985.442544199992,v,1,3.7980279000476003,None,801544,001,2024-10-17_14h32.30.810,4.0 Motor Sequence Learning,2024.1.5,None,2024-10-17 14h33.02.628742 +0530,
-50,x,,,,,14,2,58,0,985.457562699914,,,,,,,,,,,,,,,,985.4442905000178,985.457562699914,986.4572301999433,986.4572301999433,986.4572301999433,986.4572301999433,986.4572301999433,987.4562273999909,987.4562273999909,989.7225669999607,c,0,2.2624595999950543,None,801544,001,2024-10-17_14h32.30.810,4.0 Motor Sequence Learning,2024.1.5,None,2024-10-17 14h33.02.628742 +0530,
-150,z,,,,,14,3,59,3,989.7375948999543,,,,,,,,,,,,,,,,989.7240922999335,989.7375948999543,990.7369191999314,990.7369191999314,990.7369191999314,990.7369191999314,990.7369191999314,991.7360857999884,991.7360857999884,993.1194523000158,z,1,1.3745522000826895,None,801544,001,2024-10-17_14h32.30.810,4.0 Motor Sequence Learning,2024.1.5,None,2024-10-17 14h33.02.628742 +0530,
50,c,,,,,15,0,60,2,993.1346421999624,,,,,,,,,,,,,,,,993.1212335999589,993.1346421999624,994.1340381000191,994.1340381000191,994.1340381000191,994.1340381000191,994.1340381000191,995.1333754999796,995.1333754999796,997.4832359999418,x,0,2.3352811000077054,None,801544,001,2024-10-17_14h32.30.810,4.0 Motor Sequence Learning,2024.1.5,None,2024-10-17 14h33.02.628742 +0530,
-50,x,,,,,15,1,61,0,997.4984579000156,,,,,,,,,,,,,,,,997.48503719992,997.4984579000156,998.4971710999962,998.4971710999962,998.4971710999962,998.4971710999962,998.5137591999955,999.496301200008,999.496301200008,1000.8968868999509,c,0,1.387713799951598,None,801544,001,2024-10-17_14h32.30.810,4.0 Motor Sequence Learning,2024.1.5,None,2024-10-17 14h33.02.628742 +0530,
-50,x,,,,,15,2,62,0,1000.911925500026,,,,,,,,,,,,,,,,1000.898901599925,1000.911925500026,1001.9111772999167,1001.9111772999167,1001.9111772999167,1001.9111772999167,1001.9111772999167,1002.9092862999532,1002.9092862999532,1005.8757470999844,c,0,2.962403399986215,None,801544,001,2024-10-17_14h32.30.810,4.0 Motor Sequence Learning,2024.1.5,None,2024-10-17 14h33.02.628742 +0530,
150,v,,,,,15,3,63,1,1005.8907740999712,,,,,,,,,,,,,,,,1005.8774998999434,1005.8907740999712,1006.8911132999929,1006.8911132999929,1006.8911132999929,1006.8911132999929,1006.8911132999929,1007.8894526999211,1007.8894526999211,1010.805295499973,v,1,2.9090146999806166,None,801544,001,2024-10-17_14h32.30.810,4.0 Motor Sequence Learning,2024.1.5,None,2024-10-17 14h33.02.628742 +0530,
150,v,,,,,16,0,64,1,1010.8202078000177,,,,,,,,,,,,,,,,1010.8070883000037,1010.8202078000177,1011.8198645999655,1011.8198645999655,1011.8198645999655,1011.8198645999655,1011.8198645999655,1012.8185764999362,1012.8185764999362,1013.93593529996,v,1,1.1088834999827668,None,801544,001,2024-10-17_14h32.30.810,4.0 Motor Sequence Learning,2024.1.5,None,2024-10-17 14h33.02.628742 +0530,
50,c,,,,,16,1,65,2,1013.9511773999548,,,,,,,,,,,,,,,,1013.9377183999168,1013.9511773999548,1014.9501959999325,1014.9501959999325,1014.9501959999325,1014.9501959999325,1014.9684112999821,1015.9492987999693,1015.9492987999693,1018.1823282999685,x,0,2.2161291000666097,None,801544,001,2024-10-17_14h32.30.810,4.0 Motor Sequence Learning,2024.1.5,None,2024-10-17 14h33.02.628742 +0530,
