pos,corr_resp,trials.thisRepN,trials.thisTrialN,trials.thisN,trials.thisIndex,trials_2.thisRepN,trials_2.thisTrialN,trials_2.thisN,trials_2.thisIndex,thisRow.t,notes,trial.started,fixation.started,fixation.stopped,line1.started,line2.started,line3.started,line4.started,probe.started,key_resp.started,trial.stopped,key_resp.keys,key_resp.corr,key_resp.rt,key_resp.duration,routine_2.started,Fixation.started,Line1.started,Line2.started,Line3.started,Line4.started,Fixation.stopped,Probe.started,key_resp_2.started,routine_2.stopped,key_resp_2.keys,key_resp_2.corr,key_resp_2.rt,key_resp_2.duration,participant,session,date,expName,psychopyVersion,frameRate,expStart,
-50,x,0,0,0,0,,,,,0.01602810004260391,,0.009313200018368661,0.01602810004260391,1.0123279000399634,1.0123279000399634,1.0123279000399634,1.0123279000399634,1.0123279000399634,2.0114775000838563,2.0114775000838563,3.3685774999903515,x,1,1.3396457000635564,None,,,,,,,,,,,,,,,412268,001,2024-10-17_15h12.24.093,4.0 Motor Sequence Learning,2024.1.5,None,2024-10-17 15h12.33.330705 +0530,
150,v,0,1,1,1,,,,,3.3798316000029445,,3.3711639000102878,3.3798316000029445,4.376089500030503,4.376089500030503,4.376089500030503,4.376089500030503,4.376089500030503,5.375407100073062,5.375407100073062,6.459569500060752,v,1,1.0780974000226706,None,,,,,,,,,,,,,,,412268,001,2024-10-17_15h12.24.093,4.0 Motor Sequence Learning,2024.1.5,None,2024-10-17 15h12.33.330705 +0530,
50,c,0,2,2,2,,,,,6.477351700072177,,6.461414400022477,6.477351700072177,7.473577100085095,7.459934100043029,7.459934100043029,7.459934100043029,7.459934100043029,8.472727100015618,8.472727100015618,9.857501600054093,c,1,1.3823889000341296,None,,,,,,,,,,,,,,,412268,001,2024-10-17_15h12.24.093,4.0 Motor Sequence Learning,2024.1.5,None,2024-10-17 15h12.33.330705 +0530,
-150,z,0,3,3,3,,,,,9.874654400045983,,9.859354000072926,9.874654400045983,10.870820900076069,10.870820900076069,10.870820900076069,10.870820900076069,10.870820900076069,11.869820700027049,11.869820700027049,12.688055600039661,z,1,0.8100983999902382,None,,,,,,,,,,,,,,,412268,001,2024-10-17_15h12.24.093,4.0 Motor Sequence Learning,2024.1.5,None,2024-10-17 15h12.33.330705 +0530,
-50,x,1,0,4,0,,,,,12.705919799976982,,12.689799100044183,12.705919799976982,13.718361500068568,13.70496090000961,13.70496090000961,13.70496090000961,13.70496090000961,14.701115300063975,14.701115300063975,15.16915329999756,x,1,0.4625089999753982,None,,,,,,,,,,,,,,,412268,001,2024-10-17_15h12.24.093,4.0 Motor Sequence Learning,2024.1.5,None,2024-10-17 15h12.33.330705 +0530,
150,v,1,1,5,1,,,,,15.186855599982664,,15.17120410001371,15.186855599982664,16.18322770006489,16.169310300028883,16.169310300028883,16.169310300028883,16.169310300028883,17.18245930003468,17.18245930003468,17.816670599975623,v,1,0.6201672999886796,None,,,,,,,,,,,,,,,412268,001,2024-10-17_15h12.24.093,4.0 Motor Sequence Learning,2024.1.5,None,2024-10-17 15h12.33.330705 +0530,
50,c,1,2,6,2,,,,,17.835068800020963,,17.81864269997459,17.835068800020963,18.84769090008922,18.817329599987715,18.817329599987715,18.817329599987715,18.817329599987715,19.83017089997884,19.83017089997884,20.964024999993853,c,1,1.1190056999912485,None,,,,,,,,,,,,,,,412268,001,2024-10-17_15h12.24.093,4.0 Motor Sequence Learning,2024.1.5,None,2024-10-17 15h12.33.330705 +0530,
-150,z,1,3,7,3,,,,,20.98205390002113,,20.965712000033818,20.98205390002113,21.978496400057338,21.964492100058123,21.964492100058123,21.964492100058123,21.964492100058123,22.977659900090657,22.977659900090657,23.911670500063337,z,1,0.918790900032036,None,,,,,,,,,,,,,,,412268,001,2024-10-17_15h12.24.093,4.0 Motor Sequence Learning,2024.1.5,None,2024-10-17 15h12.33.330705 +0530,
-50,x,2,0,8,0,,,,,23.92982329998631,,23.914269200060517,23.92982329998631,24.942764100036584,24.92891810007859,24.92891810007859,24.92891810007859,24.92891810007859,25.925343699986115,25.925343699986115,26.70879970001988,x,1,0.7769826001022011,None,,,,,,,,,,,,,,,412268,001,2024-10-17_15h12.24.093,4.0 Motor Sequence Learning,2024.1.5,None,2024-10-17 15h12.33.330705 +0530,
150,v,2,1,9,1,,,,,26.727558200014755,,26.71047659998294,26.727558200014755,27.723712300066836,27.710169100086205,27.710169100086205,27.710169100086205,27.710169100086205,28.723041400080547,28.723041400080547,29.606779900030233,v,1,0.8745066999690607,None,,,,,,,,,,,,,,,412268,001,2024-10-17_15h12.24.093,4.0 Motor Sequence Learning,2024.1.5,None,2024-10-17 15h12.33.330705 +0530,
50,c,2,2,10,2,,,,,29.625395599985495,,29.608840800006874,29.625395599985495,30.638025099993683,30.607435500016436,30.607435500016436,30.607435500016436,30.607435500016436,31.620561300078407,31.620561300078407,32.3216967000626,c,1,0.6879963999381289,None,,,,,,,,,,,,,,,412268,001,2024-10-17_15h12.24.093,4.0 Motor Sequence Learning,2024.1.5,None,2024-10-17 15h12.33.330705 +0530,
-150,z,2,3,11,3,,,,,32.33954710001126,,32.32346189999953,32.33954710001126,33.335814799997024,33.32208960002754,33.32208960002754,33.32208960002754,33.32208960002754,34.33496050001122,34.33496050001122,34.93635139998514,z,1,0.5942434999160469,None,,,,,,,,,,,,,,,412268,001,2024-10-17_15h12.24.093,4.0 Motor Sequence Learning,2024.1.5,None,2024-10-17 15h12.33.330705 +0530,
-50,x,3,0,12,0,,,,,34.95380020001903,,34.938084200024605,34.95380020001903,35.950067099998705,35.93666420003865,35.93666420003865,35.93666420003865,35.93666420003865,36.94935550005175,36.94935550005175,38.09953340003267,x,1,1.135246800025925,None,,,,,,,,,,,,,,,412268,001,2024-10-17_15h12.24.093,4.0 Motor Sequence Learning,2024.1.5,None,2024-10-17 15h12.33.330705 +0530,
150,v,3,1,13,1,,,,,38.11780580005143,,38.10160180006642,38.11780580005143,39.114364900044166,39.10055360000115,39.10055360000115,39.10055360000115,39.10055360000115,40.11353239999153,40.11353239999153,41.01448780007195,v,1,0.8906738000223413,None,,,,,,,,,,,,,,,412268,001,2024-10-17_15h12.24.093,4.0 Motor Sequence Learning,2024.1.5,None,2024-10-17 15h12.33.330705 +0530,
50,c,3,2,14,2,,,,,41.03244730003644,,41.01626499998383,41.03244730003644,42.02876090002246,42.01479839999229,42.01479839999229,42.01479839999229,42.01479839999229,43.027966500027105,43.027966500027105,43.79546220006887,c,1,0.7611483000218868,None,,,,,,,,,,,,,,,412268,001,2024-10-17_15h12.24.093,4.0 Motor Sequence Learning,2024.1.5,None,2024-10-17 15h12.33.330705 +0530,
-150,z,3,3,15,3,,,,,43.813618600019254,,43.79715710005257,43.813618600019254,44.82629800005816,44.79580790002365,44.79580790002365,44.79580790002365,44.79580790002365,45.80884110007901,45.80884110007901,46.543201800086536,z,1,0.7217876999638975,None,,,,,,,,,,,,,,,412268,001,2024-10-17_15h12.24.093,4.0 Motor Sequence Learning,2024.1.5,None,2024-10-17 15h12.33.330705 +0530,
-50,x,4,0,16,0,,,,,46.56120810005814,,46.544977899990045,46.56120810005814,47.57423770008609,47.54352160007693,47.54352160007693,47.54352160007693,47.54352160007693,48.556689999997616,48.556689999997616,49.357620700029656,x,1,0.7861498999409378,None,,,,,,,,,,,,,,,412268,001,2024-10-17_15h12.24.093,4.0 Motor Sequence Learning,2024.1.5,None,2024-10-17 15h12.33.330705 +0530,
150,v,4,1,17,1,,,,,49.37550870003179,,49.35935550008435,49.37550870003179,50.37146140006371,50.37146140006371,50.37146140006371,50.37146140006371,50.37146140006371,51.371056300005876,51.371056300005876,52.205406000022776,v,1,0.826547299977392,None,,,,,,,,,,,,,,,412268,001,2024-10-17_15h12.24.093,4.0 Motor Sequence Learning,2024.1.5,None,2024-10-17 15h12.33.330705 +0530,
50,c,4,2,18,2,,,,,52.223197899991646,,52.207166900043376,52.223197899991646,53.219661300070584,53.205677399993874,53.205677399993874,53.205677399993874,53.205677399993874,54.21830619999673,54.21830619999673,54.98627110000234,c,1,0.7566176000982523,None,,,,,,,,,,,,,,,412268,001,2024-10-17_15h12.24.093,4.0 Motor Sequence Learning,2024.1.5,None,2024-10-17 15h12.33.330705 +0530,
-150,z,4,3,19,3,,,,,55.00439750007354,,54.98800640006084,55.00439750007354,56.01714810007252,55.986609300016426,55.986609300016426,55.986609300016426,55.986609300016426,56.99968960008118,56.99968960008118,57.767647800035775,z,1,0.7545936999376863,None,,,,,,,,,,,,,,,412268,001,2024-10-17_15h12.24.093,4.0 Motor Sequence Learning,2024.1.5,None,2024-10-17 15h12.33.330705 +0530,
-50,x,5,0,20,0,,,,,57.78516229998786,,57.7694265000755,57.78516229998786,58.781441000057384,58.7679036000045,58.7679036000045,58.7679036000045,58.7679036000045,59.780471900012344,59.780471900012344,60.58163540007081,x,1,0.7842613999964669,None,,,,,,,,,,,,,,,412268,001,2024-10-17_15h12.24.093,4.0 Motor Sequence Learning,2024.1.5,None,2024-10-17 15h12.33.330705 +0530,
150,v,5,1,21,1,,,,,60.59969709999859,,60.5833901000442,60.59969709999859,61.59585749998223,61.582049300079234,61.582049300079234,61.582049300079234,61.582049300079234,62.5950487999944,62.5950487999944,63.42931680008769,v,1,0.8262258999748155,None,,,,,,,,,,,,,,,412268,001,2024-10-17_15h12.24.093,4.0 Motor Sequence Learning,2024.1.5,None,2024-10-17 15h12.33.330705 +0530,
50,c,5,2,22,2,,,,,63.447488000034355,,63.43105620006099,63.447488000034355,64.46025840006769,64.42959319998045,64.42959319998045,64.42959319998045,64.42959319998045,65.44287150003947,65.44287150003947,66.79344889998902,c,1,1.3435826000059023,None,,,,,,,,,,,,,,,412268,001,2024-10-17_15h12.24.093,4.0 Motor Sequence Learning,2024.1.5,None,2024-10-17 15h12.33.330705 +0530,
-150,z,5,3,23,3,,,,,66.81137470004614,,66.79524020000827,66.81137470004614,67.82402000005823,67.79370060004294,67.79370060004294,67.79370060004294,67.79370060004294,68.80666420003399,68.80666420003399,69.65795330004767,z,1,0.8457814999856055,None,,,,,,,,,,,,,,,412268,001,2024-10-17_15h12.24.093,4.0 Motor Sequence Learning,2024.1.5,None,2024-10-17 15h12.33.330705 +0530,
-50,x,6,0,24,0,,,,,69.67544580006506,,69.65973000007216,69.67544580006506,70.67158740002196,70.67158740002196,70.67158740002196,70.67158740002196,70.67158740002196,71.67087460006587,71.67087460006587,72.3720288000768,x,1,0.6870292000239715,None,,,,,,,,,,,,,,,412268,001,2024-10-17_15h12.24.093,4.0 Motor Sequence Learning,2024.1.5,None,2024-10-17 15h12.33.330705 +0530,
150,v,6,1,25,1,,,,,72.38987960002851,,72.3737914999947,72.38987960002851,73.38636570004746,73.37224100006279,73.37224100006279,73.37224100006279,73.37224100006279,74.38546520005912,74.38546520005912,75.20305720006581,v,1,0.8141349999932572,None,,,,,,,,,,,,,,,412268,001,2024-10-17_15h12.24.093,4.0 Motor Sequence Learning,2024.1.5,None,2024-10-17 15h12.33.330705 +0530,
50,c,6,2,26,2,,,,,75.22083000000566,,75.2048664999893,75.22083000000566,76.21700910001528,76.20382870000321,76.20382870000321,76.20382870000321,76.20382870000321,77.21630910004023,77.21630910004023,78.05112289998215,c,1,0.8183090999955311,None,,,,,,,,,,,,,,,412268,001,2024-10-17_15h12.24.093,4.0 Motor Sequence Learning,2024.1.5,None,2024-10-17 15h12.33.330705 +0530,
-150,z,6,3,27,3,,,,,78.06863019999582,,78.0529278999893,78.06863019999582,79.06470039999112,79.06470039999112,79.06470039999112,79.06470039999112,79.06470039999112,80.06390280008782,80.06390280008782,80.96494850004092,z,1,0.892920000012964,None,,,,,,,,,,,,,,,412268,001,2024-10-17_15h12.24.093,4.0 Motor Sequence Learning,2024.1.5,None,2024-10-17 15h12.33.330705 +0530,
-50,x,7,0,28,0,,,,,80.98304209997877,,80.96678390004672,80.98304209997877,81.99577899998985,81.9652593000792,81.9652593000792,81.9652593000792,81.9652593000792,82.97828729997855,82.97828729997855,83.99590209999587,x,1,1.0106319999322295,None,,,,,,,,,,,,,,,412268,001,2024-10-17_15h12.24.093,4.0 Motor Sequence Learning,2024.1.5,None,2024-10-17 15h12.33.330705 +0530,
150,v,7,1,29,1,,,,,84.01356670004316,,83.9976715000812,84.01356670004316,85.00987060007174,84.99650860007387,84.99650860007387,84.99650860007387,84.99650860007387,86.00908400001936,86.00908400001936,87.35967570007779,v,1,1.3454318000003695,None,,,,,,,,,,,,,,,412268,001,2024-10-17_15h12.24.093,4.0 Motor Sequence Learning,2024.1.5,None,2024-10-17 15h12.33.330705 +0530,
50,c,7,2,30,2,,,,,87.37770439998712,,87.36143170006108,87.37770439998712,88.39054400008172,88.36002740007825,88.36002740007825,88.36002740007825,88.36002740007825,89.3730950000463,89.3730950000463,90.45694050006568,c,1,1.0680953999981284,None,,,,,,,,,,,,,,,412268,001,2024-10-17_15h12.24.093,4.0 Motor Sequence Learning,2024.1.5,None,2024-10-17 15h12.33.330705 +0530,
-150,z,7,3,31,3,,,,,90.4752781999996,,90.4589936999837,90.4752781999996,91.47144210000988,91.45762860006653,91.45762860006653,91.45762860006653,91.45762860006653,92.47063260001596,92.47063260001596,93.32134879997466,z,1,0.8385816999943927,None,,,,,,,,,,,,,,,412268,001,2024-10-17_15h12.24.093,4.0 Motor Sequence Learning,2024.1.5,None,2024-10-17 15h12.33.330705 +0530,
-50,x,8,0,32,0,,,,,93.33967750007287,,93.3231127000181,93.33967750007287,94.33567459997721,94.32211980002467,94.32211980002467,94.32211980002467,94.32211980002467,95.33498440007679,95.33498440007679,96.08660729997791,x,1,0.7493357000639662,None,,,,,,,,,,,,,,,412268,001,2024-10-17_15h12.24.093,4.0 Motor Sequence Learning,2024.1.5,None,2024-10-17 15h12.33.330705 +0530,
150,v,8,1,33,1,,,,,96.10367700003553,,96.08824880002066,96.10367700003553,97.09990170004312,97.09990170004312,97.09990170004312,97.09990170004312,97.09990170004312,98.09912600007374,98.09912600007374,98.43376180005725,v,1,0.32860060001257807,None,,,,,,,,,,,,,,,412268,001,2024-10-17_15h12.24.093,4.0 Motor Sequence Learning,2024.1.5,None,2024-10-17 15h12.33.330705 +0530,
50,c,8,2,34,2,,,,,98.45148980000522,,98.43549529998563,98.45148980000522,99.4479461000301,99.43435810005758,99.43435810005758,99.43435810005758,99.43435810005758,100.44720250007231,100.44720250007231,100.9981460000854,c,1,0.5440702999476343,None,,,,,,,,,,,,,,,412268,001,2024-10-17_15h12.24.093,4.0 Motor Sequence Learning,2024.1.5,None,2024-10-17 15h12.33.330705 +0530,
-150,z,8,3,35,3,,,,,101.01646080007777,,100.99989119998645,101.01646080007777,102.01279140007682,101.99922450003214,101.99922450003214,101.99922450003214,101.99922450003214,103.01190260006115,103.01190260006115,104.1129770000698,z,1,1.0916409000055864,None,,,,,,,,,,,,,,,412268,001,2024-10-17_15h12.24.093,4.0 Motor Sequence Learning,2024.1.5,None,2024-10-17 15h12.33.330705 +0530,
-50,x,9,0,36,0,,,,,104.13072040001862,,104.11489089997485,104.13072040001862,105.12682270002551,105.12682270002551,105.12682270002551,105.12682270002551,105.12682270002551,106.12595950008836,106.12595950008836,107.2432462000288,x,1,1.101213000016287,None,,,,,,,,,,,,,,,412268,001,2024-10-17_15h12.24.093,4.0 Motor Sequence Learning,2024.1.5,None,2024-10-17 15h12.33.330705 +0530,
150,v,9,1,37,1,,,,,107.26130260003265,,107.24573780002538,107.26130260003265,108.25742779998109,108.25742779998109,108.25742779998109,108.25742779998109,108.25742779998109,109.25661829998717,109.25661829998717,110.00784830003977,v,1,0.7423794999485835,None,,,,,,,,,,,,,,,412268,001,2024-10-17_15h12.24.093,4.0 Motor Sequence Learning,2024.1.5,None,2024-10-17 15h12.33.330705 +0530,
50,c,9,2,38,2,,,,,110.02562560001388,,110.00961499998812,110.02562560001388,111.02195690001827,111.00835580006242,111.00835580006242,111.00835580006242,111.00835580006242,112.02129900001455,112.02129900001455,112.68881490000058,c,1,0.652048800024204,None,,,,,,,,,,,,,,,412268,001,2024-10-17_15h12.24.093,4.0 Motor Sequence Learning,2024.1.5,None,2024-10-17 15h12.33.330705 +0530,
-150,z,9,3,39,3,,,,,112.70688880002126,,112.69060450000688,112.70688880002126,113.70323250000365,113.68923940008972,113.68923940008972,113.68923940008972,113.68923940008972,114.702235499979,114.702235499979,115.7697879000334,z,1,1.0584237000439316,None,,,,,,,,,,,,,,,412268,001,2024-10-17_15h12.24.093,4.0 Motor Sequence Learning,2024.1.5,None,2024-10-17 15h12.33.330705 +0530,
-50,x,10,0,40,0,,,,,115.78745150007308,,115.77155100007076,115.78745150007308,116.78381360007916,116.7700261999853,116.7700261999853,116.7700261999853,116.7700261999853,117.78291690000333,117.78291690000333,118.56731060007587,x,1,0.7755085999378935,None,,,,,,,,,,,,,,,412268,001,2024-10-17_15h12.24.093,4.0 Motor Sequence Learning,2024.1.5,None,2024-10-17 15h12.33.330705 +0530,
150,v,10,1,41,1,,,,,118.58502890006639,,118.56908600009046,118.58502890006639,119.58145390008576,119.56804909999482,119.56804909999482,119.56804909999482,119.56804909999482,120.5805749000283,120.5805749000283,120.94882100005634,v,1,0.3580567000899464,None,,,,,,,,,,,,,,,412268,001,2024-10-17_15h12.24.093,4.0 Motor Sequence Learning,2024.1.5,None,2024-10-17 15h12.33.330705 +0530,
50,c,10,2,42,2,,,,,120.96658360003494,,120.95059460005723,120.96658360003494,121.96313510008622,121.94917380006518,121.94917380006518,121.94917380006518,121.94917380006518,122.96223240008112,122.96223240008112,123.4798548000399,c,1,0.5136305999476463,None,,,,,,,,,,,,,,,412268,001,2024-10-17_15h12.24.093,4.0 Motor Sequence Learning,2024.1.5,None,2024-10-17 15h12.33.330705 +0530,
-150,z,10,3,43,3,,,,,123.49811729998328,,123.48165380000137,123.49811729998328,124.51087930006906,124.48043880006298,124.48043880006298,124.48043880006298,124.48043880006298,125.49355040001683,125.49355040001683,125.87889250006992,z,1,0.3831390000414103,None,,,,,,,,,,,,,,,412268,001,2024-10-17_15h12.24.093,4.0 Motor Sequence Learning,2024.1.5,None,2024-10-17 15h12.33.330705 +0530,
-50,x,11,0,44,0,,,,,125.89600980002433,,125.8809414000716,125.89600980002433,126.89229200000409,126.89229200000409,126.89229200000409,126.89229200000409,126.89229200000409,127.89133090001997,127.89133090001997,128.3591578999767,x,1,0.45856559998355806,None,,,,,,,,,,,,,,,412268,001,2024-10-17_15h12.24.093,4.0 Motor Sequence Learning,2024.1.5,None,2024-10-17 15h12.33.330705 +0530,
150,v,11,1,45,1,,,,,128.3768980000168,,128.36165350000374,128.3768980000168,129.373123700032,129.373123700032,129.373123700032,129.373123700032,129.373123700032,130.37230729998555,130.37230729998555,131.05662679998204,v,1,0.6728688000002876,None,,,,,,,,,,,,,,,412268,001,2024-10-17_15h12.24.093,4.0 Motor Sequence Learning,2024.1.5,None,2024-10-17 15h12.33.330705 +0530,
50,c,11,2,46,2,,,,,131.07463010004722,,131.0582627999829,131.07463010004722,132.0708866000641,132.057035200065,132.057035200065,132.057035200065,132.057035200065,133.07031470001675,133.07031470001675,133.4884408999933,c,1,0.4146540000801906,None,,,,,,,,,,,,,,,412268,001,2024-10-17_15h12.24.093,4.0 Motor Sequence Learning,2024.1.5,None,2024-10-17 15h12.33.330705 +0530,
-150,z,11,3,47,3,,,,,133.50630370003637,,133.49018580000848,133.50630370003637,134.50248280004598,134.48887200001627,134.48887200001627,134.48887200001627,134.48887200001627,135.50170600006822,135.50170600006822,136.2361164999893,z,1,0.7218854000093415,None,,,,,,,,,,,,,,,412268,001,2024-10-17_15h12.24.093,4.0 Motor Sequence Learning,2024.1.5,None,2024-10-17 15h12.33.330705 +0530,
-50,x,12,0,48,0,,,,,136.25406629999634,,136.23806830006652,136.25406629999634,137.2502766000107,137.2366231000051,137.2366231000051,137.2366231000051,137.2366231000051,138.24938639998436,138.24938639998436,138.76734330004547,x,1,0.5095019000582397,None,,,,,,,,,,,,,,,412268,001,2024-10-17_15h12.24.093,4.0 Motor Sequence Learning,2024.1.5,None,2024-10-17 15h12.33.330705 +0530,
150,v,12,1,49,1,,,,,138.78531609999482,,138.76911740005016,138.78531609999482,139.7982235000236,139.7675766000757,139.7675766000757,139.7675766000757,139.7675766000757,140.78070090000983,140.78070090000983,141.28191750007682,v,1,0.4971025000559166,None,,,,,,,,,,,,,,,412268,001,2024-10-17_15h12.24.093,4.0 Motor Sequence Learning,2024.1.5,None,2024-10-17 15h12.33.330705 +0530,
50,c,12,2,50,2,,,,,141.30004350002855,,141.28372280008625,141.30004350002855,142.29618150007445,142.28238960006274,142.28238960006274,142.28238960006274,142.28238960006274,143.29534710000735,143.29534710000735,143.71326049999334,c,1,0.4102080001030117,None,,,,,,,,,,,,,,,412268,001,2024-10-17_15h12.24.093,4.0 Motor Sequence Learning,2024.1.5,None,2024-10-17 15h12.33.330705 +0530,
-150,z,12,3,51,3,,,,,143.7315523000434,,143.71512519998942,143.7315523000434,144.74408520001452,144.71357150003314,144.71357150003314,144.71357150003314,144.71357150003314,145.72650129999965,145.72650129999965,146.26158170006238,z,1,0.5325041000032797,None,,,,,,,,,,,,,,,412268,001,2024-10-17_15h12.24.093,4.0 Motor Sequence Learning,2024.1.5,None,2024-10-17 15h12.33.330705 +0530,
-50,x,13,0,52,0,,,,,146.27911470003892,,146.26341570005752,146.27911470003892,147.27539730002172,147.27539730002172,147.27539730002172,147.27539730002172,147.27539730002172,148.27453410008457,148.27453410008457,148.84257470001467,x,1,0.5577232999494299,None,,,,,,,,,,,,,,,412268,001,2024-10-17_15h12.24.093,4.0 Motor Sequence Learning,2024.1.5,None,2024-10-17 15h12.33.330705 +0530,
150,v,13,1,53,1,,,,,148.86023039999418,,148.84451620001346,148.86023039999418,149.856609200011,149.84292920003645,149.84292920003645,149.84292920003645,149.84292920003645,150.85524100007024,150.85524100007024,151.20726450008806,v,1,0.3363263999344781,None,,,,,,,,,,,,,,,412268,001,2024-10-17_15h12.24.093,4.0 Motor Sequence Learning,2024.1.5,None,2024-10-17 15h12.33.330705 +0530,
50,c,13,2,54,2,,,,,151.22514500003308,,151.20902260008734,151.22514500003308,152.22135000000708,152.2075705000898,152.2075705000898,152.2075705000898,152.2075705000898,153.2203572000144,153.2203572000144,153.70436239999253,c,1,0.4767385999439284,None,,,,,,,,,,,,,,,412268,001,2024-10-17_15h12.24.093,4.0 Motor Sequence Learning,2024.1.5,None,2024-10-17 15h12.33.330705 +0530,
-150,z,13,3,55,3,,,,,153.72254730004352,,153.7061177000869,153.72254730004352,154.71929739997722,154.70542210002895,154.70542210002895,154.70542210002895,154.70542210002895,155.7185204999987,155.7185204999987,156.2028875000542,z,1,0.46922920003999025,None,,,,,,,,,,,,,,,412268,001,2024-10-17_15h12.24.093,4.0 Motor Sequence Learning,2024.1.5,None,2024-10-17 15h12.33.330705 +0530,
-50,x,14,0,56,0,,,,,156.2209506999934,,156.20471550000366,156.2209506999934,157.21719980007038,157.2034452999942,157.2034452999942,157.2034452999942,157.2034452999942,158.21627590002026,158.21627590002026,158.78418590000365,x,1,0.5553146000020206,None,,,,,,,,,,,,,,,412268,001,2024-10-17_15h12.24.093,4.0 Motor Sequence Learning,2024.1.5,None,2024-10-17 15h12.33.330705 +0530,
150,v,14,1,57,1,,,,,158.80208380008116,,158.78600650001317,158.80208380008116,159.79840830003377,159.78472180000972,159.78472180000972,159.78472180000972,159.78472180000972,160.79723680007737,160.79723680007737,161.51549140003044,v,1,0.7097780000185594,None,,,,,,,,,,,,,,,412268,001,2024-10-17_15h12.24.093,4.0 Motor Sequence Learning,2024.1.5,None,2024-10-17 15h12.33.330705 +0530,
50,c,14,2,58,2,,,,,161.5332942000823,,161.51722170005087,161.5332942000823,162.52941439999267,162.51598770008422,162.51598770008422,162.51598770008422,162.51598770008422,163.5284868000308,163.5284868000308,164.31337150000036,c,1,0.7817696999991313,None,,,,,,,,,,,,,,,412268,001,2024-10-17_15h12.24.093,4.0 Motor Sequence Learning,2024.1.5,None,2024-10-17 15h12.33.330705 +0530,
-150,z,14,3,59,3,,,,,164.33091190003324,,164.31513870006893,164.33091190003324,165.32723480009008,165.3134594000876,165.3134594000876,165.3134594000876,165.3134594000876,166.3265271000564,166.3265271000564,166.77774930000305,z,1,0.4364661000436172,None,,,,,,,,,,,,,,,412268,001,2024-10-17_15h12.24.093,4.0 Motor Sequence Learning,2024.1.5,None,2024-10-17 15h12.33.330705 +0530,
-50,x,15,0,60,0,,,,,166.7954497000901,,166.77951170003507,166.7954497000901,167.79189620004036,167.7781427000882,167.7781427000882,167.7781427000882,167.7781427000882,168.79078610008582,168.79078610008582,169.54190860001836,x,1,0.7367477000225335,None,,,,,,,,,,,,,,,412268,001,2024-10-17_15h12.24.093,4.0 Motor Sequence Learning,2024.1.5,None,2024-10-17 15h12.33.330705 +0530,
150,v,15,1,61,1,,,,,169.55995020002592,,169.5436854000436,169.55995020002592,170.5561364000896,170.5426438000286,170.5426438000286,170.5426438000286,170.5426438000286,171.55542420002166,171.55542420002166,171.90694770007394,v,1,0.3444735000375658,None,,,,,,,,,,,,,,,412268,001,2024-10-17_15h12.24.093,4.0 Motor Sequence Learning,2024.1.5,None,2024-10-17 15h12.33.330705 +0530,
50,c,15,2,62,2,,,,,171.92469160002656,,171.90870110003743,171.92469160002656,172.92090070003178,172.92090070003178,172.92090070003178,172.92090070003178,172.92090070003178,173.92019810003694,173.92019810003694,174.40476300008595,c,1,0.47296079993247986,None,,,,,,,,,,,,,,,412268,001,2024-10-17_15h12.24.093,4.0 Motor Sequence Learning,2024.1.5,None,2024-10-17 15h12.33.330705 +0530,
-150,z,15,3,63,3,,,,,174.4226662000874,,174.4065566000063,174.4226662000874,175.41889700002503,175.40543570008595,175.40543570008595,175.40543570008595,175.40543570008595,176.41823150007986,176.41823150007986,176.86908930004574,z,1,0.4335808999603614,None,,,,,,,,,,,,,,,412268,001,2024-10-17_15h12.24.093,4.0 Motor Sequence Learning,2024.1.5,None,2024-10-17 15h12.33.330705 +0530,
-50,x,16,0,64,0,,,,,176.88723290001508,,176.87090320000425,176.88723290001508,177.88351419998799,177.86977250000928,177.86977250000928,177.86977250000928,177.86977250000928,178.88259629998356,178.88259629998356,179.2010300999973,x,1,0.31153409997932613,None,,,,,,,,,,,,,,,412268,001,2024-10-17_15h12.24.093,4.0 Motor Sequence Learning,2024.1.5,None,2024-10-17 15h12.33.330705 +0530,
150,v,16,1,65,1,,,,,179.21886999998242,,179.20275470009074,179.21886999998242,180.21493190003093,180.20144540001638,180.20144540001638,180.20144540001638,180.20144540001638,181.21414250007365,181.21414250007365,181.59895670006517,v,1,0.37412849999964237,None,,,,,,,,,,,,,,,412268,001,2024-10-17_15h12.24.093,4.0 Motor Sequence Learning,2024.1.5,None,2024-10-17 15h12.33.330705 +0530,
50,c,16,2,66,2,,,,,181.61680339998566,,181.60071040003095,181.61680339998566,182.613037000061,182.59944260003977,182.59944260003977,182.59944260003977,182.59944260003977,183.612151700072,183.612151700072,183.9635610000696,c,1,0.33664480003062636,None,,,,,,,,,,,,,,,412268,001,2024-10-17_15h12.24.093,4.0 Motor Sequence Learning,2024.1.5,None,2024-10-17 15h12.33.330705 +0530,
-150,z,16,3,67,3,,,,,183.98141430004034,,183.96532439999282,183.98141430004034,184.97764900000766,184.96399399999063,184.96399399999063,184.96399399999063,184.96399399999063,185.97675770008937,185.97675770008937,186.32827240007464,z,1,0.3450558000477031,None,,,,,,,,,,,,,,,412268,001,2024-10-17_15h12.24.093,4.0 Motor Sequence Learning,2024.1.5,None,2024-10-17 15h12.33.330705 +0530,
-50,x,17,0,68,0,,,,,186.34623270004522,,186.33003120007925,186.34623270004522,187.34222490002867,187.32865729997866,187.32865729997866,187.32865729997866,187.32865729997866,188.34163170005195,188.34163170005195,188.74419610004406,x,1,0.40010630001779646,None,,,,,,,,,,,,,,,412268,001,2024-10-17_15h12.24.093,4.0 Motor Sequence Learning,2024.1.5,None,2024-10-17 15h12.33.330705 +0530,
150,v,17,1,69,1,,,,,188.7608685999876,,188.74614260008093,188.7608685999876,189.7571199000813,189.7571199000813,189.7571199000813,189.7571199000813,189.7571199000813,190.7561673000455,190.7561673000455,191.10731940006372,v,1,0.3380839000456035,None,,,,,,,,,,,,,,,412268,001,2024-10-17_15h12.24.093,4.0 Motor Sequence Learning,2024.1.5,None,2024-10-17 15h12.33.330705 +0530,
50,c,17,2,70,2,,,,,191.12564019998536,,191.10929880000185,191.12564019998536,192.12174640002195,192.10803990007844,192.10803990007844,192.10803990007844,192.10803990007844,193.12108010007069,193.12108010007069,194.43842120002955,c,1,1.3067424000473693,None,,,,,,,,,,,,,,,412268,001,2024-10-17_15h12.24.093,4.0 Motor Sequence Learning,2024.1.5,None,2024-10-17 15h12.33.330705 +0530,
-150,z,17,3,71,3,,,,,194.4562212000601,,194.4401698000729,194.4562212000601,195.45247780007776,195.43893150007352,195.43893150007352,195.43893150007352,195.43893150007352,196.45158630004153,196.45158630004153,197.0863946999889,z,1,0.6320564999477938,None,,,,,,,,,,,,,,,412268,001,2024-10-17_15h12.24.093,4.0 Motor Sequence Learning,2024.1.5,None,2024-10-17 15h12.33.330705 +0530,
-50,x,18,0,72,0,,,,,197.10390200000256,,197.08840820007026,197.10390200000256,198.10038279998116,198.10038279998116,198.10038279998116,198.10038279998116,198.10038279998116,199.09950690006372,199.09950690006372,199.48402800003532,x,1,0.3676109000807628,None,,,,,,,,,,,,,,,412268,001,2024-10-17_15h12.24.093,4.0 Motor Sequence Learning,2024.1.5,None,2024-10-17 15h12.33.330705 +0530,
150,v,18,1,73,1,,,,,199.5020627999911,,199.48579240008257,199.5020627999911,200.4982235999778,200.48470090003684,200.48470090003684,200.48470090003684,200.48470090003684,201.4973509000847,201.4973509000847,202.09797430003528,v,1,0.586473900009878,None,,,,,,,,,,,,,,,412268,001,2024-10-17_15h12.24.093,4.0 Motor Sequence Learning,2024.1.5,None,2024-10-17 15h12.33.330705 +0530,
50,c,18,2,74,2,,,,,202.11643240007106,,202.0997913000174,202.11643240007106,203.11236310005188,203.09886390005704,203.09886390005704,203.09886390005704,203.09886390005704,204.11180250009056,204.11180250009056,204.46395900007337,c,1,0.35001119994558394,None,,,,,,,,,,,,,,,412268,001,2024-10-17_15h12.24.093,4.0 Motor Sequence Learning,2024.1.5,None,2024-10-17 15h12.33.330705 +0530,
-150,z,18,3,75,3,,,,,204.4810757000232,,204.46699009998702,204.4810757000232,205.47746510000434,205.47746510000434,205.47746510000434,205.47746510000434,205.47746510000434,206.4764390999917,206.4764390999917,206.92716580000706,z,1,0.43387770000845194,None,,,,,,,,,,,,,,,412268,001,2024-10-17_15h12.24.093,4.0 Motor Sequence Learning,2024.1.5,None,2024-10-17 15h12.33.330705 +0530,
-50,x,19,0,76,0,,,,,206.94611180003267,,206.92823349998798,206.94611180003267,207.95867359999102,207.92841190006584,207.92841190006584,207.92841190006584,207.92841190006584,208.94115020008758,208.94115020008758,209.29200200003106,x,1,0.3477091999957338,None,,,,,,,,,,,,,,,412268,001,2024-10-17_15h12.24.093,4.0 Motor Sequence Learning,2024.1.5,None,2024-10-17 15h12.33.330705 +0530,
150,v,19,1,77,1,,,,,209.31042520003393,,209.29380350001156,209.31042520003393,210.30666970007587,210.29312420007773,210.29312420007773,210.29312420007773,210.29312420007773,211.30597980006132,211.30597980006132,211.72361420001835,v,1,0.4145796000957489,None,,,,,,,,,,,,,,,412268,001,2024-10-17_15h12.24.093,4.0 Motor Sequence Learning,2024.1.5,None,2024-10-17 15h12.33.330705 +0530,
50,c,19,2,78,2,,,,,211.7418276000535,,211.72569049999584,211.7418276000535,212.73826180002652,212.72449240006972,212.72449240006972,212.72449240006972,212.72449240006972,213.73728760005906,213.73728760005906,214.08903949998785,c,1,0.3437392000341788,None,,,,,,,,,,,,,,,412268,001,2024-10-17_15h12.24.093,4.0 Motor Sequence Learning,2024.1.5,None,2024-10-17 15h12.33.330705 +0530,
-150,z,19,3,79,3,,,,,214.10657649999484,,214.09227380005177,214.10657649999484,215.10259080003016,215.10259080003016,215.10259080003016,215.10259080003016,215.10259080003016,216.10181880008895,216.10181880008895,216.48671379999723,z,1,0.3823728999122977,None,,,,,,,,,,,,,,,412268,001,2024-10-17_15h12.24.093,4.0 Motor Sequence Learning,2024.1.5,None,2024-10-17 15h12.33.330705 +0530,
-50,x,20,0,80,0,,,,,216.504431999987,,216.48853880004026,216.504431999987,217.500776699977,217.48719520005397,217.48719520005397,217.48719520005397,217.48719520005397,218.49993130005896,218.49993130005896,218.8679870000342,x,1,0.360124500002712,None,,,,,,,,,,,,,,,412268,001,2024-10-17_15h12.24.093,4.0 Motor Sequence Learning,2024.1.5,None,2024-10-17 15h12.33.330705 +0530,
150,v,20,1,81,1,,,,,218.8858698999975,,218.87079120008275,218.8858698999975,219.88219690008555,219.88219690008555,219.88219690008555,219.88219690008555,219.88219690008555,220.88131249998696,220.88131249998696,221.23239560006186,v,1,0.3460111999884248,None,,,,,,,,,,,,,,,412268,001,2024-10-17_15h12.24.093,4.0 Motor Sequence Learning,2024.1.5,None,2024-10-17 15h12.33.330705 +0530,
50,c,20,2,82,2,,,,,221.25049610005226,,221.23411820002366,221.25049610005226,222.24700930004474,222.2333233000245,222.2333233000245,222.2333233000245,222.2333233000245,223.24623829999473,223.24623829999473,224.18051289999858,c,1,0.923186199972406,None,,,,,,,,,,,,,,,412268,001,2024-10-17_15h12.24.093,4.0 Motor Sequence Learning,2024.1.5,None,2024-10-17 15h12.33.330705 +0530,
-150,z,20,3,83,3,,,,,224.1982493000105,,224.18242209998425,224.1982493000105,225.19441100000404,225.19441100000404,225.19441100000404,225.19441100000404,225.19441100000404,226.1938365000533,226.1938365000533,226.54521250003017,z,1,0.34896550001576543,None,,,,,,,,,,,,,,,412268,001,2024-10-17_15h12.24.093,4.0 Motor Sequence Learning,2024.1.5,None,2024-10-17 15h12.33.330705 +0530,
-50,x,21,0,84,0,,,,,226.56316880008671,,226.5469757000683,226.56316880008671,227.57592380000278,227.54520330007654,227.54520330007654,227.54520330007654,227.54520330007654,228.55850739998277,228.55850739998277,228.9924922999926,x,1,0.4274069999810308,None,,,,,,,,,,,,,,,412268,001,2024-10-17_15h12.24.093,4.0 Motor Sequence Learning,2024.1.5,None,2024-10-17 15h12.33.330705 +0530,
150,v,21,1,85,1,,,,,229.01102179998998,,228.99409980000928,229.01102179998998,230.0072600999847,229.99359560001176,229.99359560001176,229.99359560001176,229.99359560001176,231.00652220007032,231.00652220007032,231.67423080001026,v,1,0.6516819000244141,None,,,,,,,,,,,,,,,412268,001,2024-10-17_15h12.24.093,4.0 Motor Sequence Learning,2024.1.5,None,2024-10-17 15h12.33.330705 +0530,
50,c,21,2,86,2,,,,,231.69211230007932,,231.67704139999114,231.69211230007932,232.68854310002644,232.68854310002644,232.68854310002644,232.68854310002644,232.68854310002644,233.6876123000402,233.6876123000402,234.05593879998196,c,1,0.3619013000279665,None,,,,,,,,,,,,,,,412268,001,2024-10-17_15h12.24.093,4.0 Motor Sequence Learning,2024.1.5,None,2024-10-17 15h12.33.330705 +0530,
-150,z,21,3,87,3,,,,,234.0737256000284,,234.05791810003575,234.0737256000284,235.0698388000019,235.0698388000019,235.0698388000019,235.0698388000019,235.0698388000019,236.06897650007159,236.06897650007159,236.45342929998878,z,1,0.37321130000054836,None,,,,,,,,,,,,,,,412268,001,2024-10-17_15h12.24.093,4.0 Motor Sequence Learning,2024.1.5,None,2024-10-17 15h12.33.330705 +0530,
-50,x,22,0,88,0,,,,,236.47133299999405,,236.4551449000137,236.47133299999405,237.46779100003187,237.4537726000417,237.4537726000417,237.4537726000417,237.4537726000417,238.46695929998532,238.46695929998532,239.20091790007427,x,1,0.7204305999912322,None,,,,,,,,,,,,,,,412268,001,2024-10-17_15h12.24.093,4.0 Motor Sequence Learning,2024.1.5,None,2024-10-17 15h12.33.330705 +0530,
150,v,22,1,89,1,,,,,239.21936820005067,,239.20258699997794,239.21936820005067,240.23202340002172,240.20157040003687,240.20157040003687,240.20157040003687,240.20157040003687,241.21467830007896,241.21467830007896,241.58264380006585,v,1,0.35288999998010695,None,,,,,,,,,,,,,,,412268,001,2024-10-17_15h12.24.093,4.0 Motor Sequence Learning,2024.1.5,None,2024-10-17 15h12.33.330705 +0530,
50,c,22,2,90,2,,,,,241.60037920007017,,241.58563600003254,241.60037920007017,242.59693450003397,242.59693450003397,242.59693450003397,242.59693450003397,242.59693450003397,243.59604660002515,243.59604660002515,243.89754779997747,c,1,0.29137709992937744,None,,,,,,,,,,,,,,,412268,001,2024-10-17_15h12.24.093,4.0 Motor Sequence Learning,2024.1.5,None,2024-10-17 15h12.33.330705 +0530,
-150,z,22,3,91,3,,,,,243.91543829999864,,243.8991415000055,243.91543829999864,244.91155590000562,244.89784079999663,244.89784079999663,244.89784079999663,244.89784079999663,245.91082049999386,245.91082049999386,246.44516950007528,z,1,0.5311443000100553,None,,,,,,,,,,,,,,,412268,001,2024-10-17_15h12.24.093,4.0 Motor Sequence Learning,2024.1.5,None,2024-10-17 15h12.33.330705 +0530,
-50,x,23,0,92,0,,,,,246.46292910003103,,246.44656160008162,246.46292910003103,247.45980830001645,247.44598289998248,247.44598289998248,247.44598289998248,247.44598289998248,248.45875260001048,248.45875260001048,248.79300170007627,x,1,0.3209694999968633,None,,,,,,,,,,,,,,,412268,001,2024-10-17_15h12.24.093,4.0 Motor Sequence Learning,2024.1.5,None,2024-10-17 15h12.33.330705 +0530,
150,v,23,1,93,1,,,,,248.81143620004877,,248.79502550000325,248.81143620004877,249.80776890006382,249.79421850002836,249.79421850002836,249.79421850002836,249.79421850002836,250.8067815999966,250.8067815999966,251.1582469000714,v,1,0.346863100072369,None,,,,,,,,,,,,,,,412268,001,2024-10-17_15h12.24.093,4.0 Motor Sequence Learning,2024.1.5,None,2024-10-17 15h12.33.330705 +0530,
50,c,23,2,94,2,,,,,251.17577560001519,,251.15999580000062,251.17577560001519,252.17229640006553,252.15868660004344,252.15868660004344,252.15868660004344,252.15868660004344,253.17136150004808,253.17136150004808,253.48941030004062,c,1,0.30884159996639937,None,,,,,,,,,,,,,,,412268,001,2024-10-17_15h12.24.093,4.0 Motor Sequence Learning,2024.1.5,None,2024-10-17 15h12.33.330705 +0530,
-150,z,23,3,95,3,,,,,253.50722450006288,,253.49219310004264,253.50722450006288,254.50381870009005,254.50381870009005,254.50381870009005,254.50381870009005,254.50381870009005,255.5028736999957,255.5028736999957,256.02050059998874,z,1,0.511623999918811,None,,,,,,,,,,,,,,,412268,001,2024-10-17_15h12.24.093,4.0 Motor Sequence Learning,2024.1.5,None,2024-10-17 15h12.33.330705 +0530,
-50,x,24,0,96,0,,,,,256.03847510006744,,256.0218556000618,256.03847510006744,257.03520300006494,257.0213535000803,257.0213535000803,257.0213535000803,257.0213535000803,258.03432610002346,258.03432610002346,258.41842160001397,x,1,0.36785150005016476,None,,,,,,,,,,,,,,,412268,001,2024-10-17_15h12.24.093,4.0 Motor Sequence Learning,2024.1.5,None,2024-10-17 15h12.33.330705 +0530,
150,v,24,1,97,1,,,,,258.43672990007326,,258.4197206000099,258.43672990007326,259.43325680005364,259.4193085000152,259.4193085000152,259.4193085000152,259.4193085000152,260.43237940000836,260.43237940000836,260.78387649997603,v,1,0.3488212999654934,None,,,,,,,,,,,,,,,412268,001,2024-10-17_15h12.24.093,4.0 Motor Sequence Learning,2024.1.5,None,2024-10-17 15h12.33.330705 +0530,
50,c,24,2,98,2,,,,,260.8017942000879,,260.7855580999749,260.8017942000879,261.7978834999958,261.7841405000072,261.7841405000072,261.7841405000072,261.7841405000072,262.79705519997515,262.79705519997515,263.11542240006384,c,1,0.3009448000229895,None,,,,,,,,,,,,,,,412268,001,2024-10-17_15h12.24.093,4.0 Motor Sequence Learning,2024.1.5,None,2024-10-17 15h12.33.330705 +0530,
-150,z,24,3,99,3,,,,,263.13308040006086,,263.117185399984,263.13308040006086,264.12938529998064,264.12938529998064,264.12938529998064,264.12938529998064,264.12938529998064,265.12850230000913,265.12850230000913,265.4631284000352,z,1,0.3183089999947697,None,,,,,,,,,,,,,,,412268,001,2024-10-17_15h12.24.093,4.0 Motor Sequence Learning,2024.1.5,None,2024-10-17 15h12.33.330705 +0530,
-50,x,25,0,100,0,,,,,265.48116359999403,,265.46493700006977,265.48116359999403,266.4774124000687,266.4636271999916,266.4636271999916,266.4636271999916,266.4636271999916,267.47655460005626,267.47655460005626,267.9278207999887,x,1,0.437632100074552,None,,,,,,,,,,,,,,,412268,001,2024-10-17_15h12.24.093,4.0 Motor Sequence Learning,2024.1.5,None,2024-10-17 15h12.33.330705 +0530,
150,v,25,1,101,1,,,,,267.9458825000329,,267.92958570003975,267.9458825000329,268.9420197000727,268.92855830001645,268.92855830001645,268.92855830001645,268.92855830001645,269.94131999998353,269.94131999998353,270.259406200028,v,1,0.3054557000286877,None,,,,,,,,,,,,,,,412268,001,2024-10-17_15h12.24.093,4.0 Motor Sequence Learning,2024.1.5,None,2024-10-17 15h12.33.330705 +0530,
50,c,25,2,102,2,,,,,270.2772610000102,,270.26117549999617,270.2772610000102,271.2734773000702,271.2597076999955,271.2597076999955,271.2597076999955,271.2597076999955,272.27277380006853,272.27277380006853,272.6240864000283,c,1,0.3443781000096351,None,,,,,,,,,,,,,,,412268,001,2024-10-17_15h12.24.093,4.0 Motor Sequence Learning,2024.1.5,None,2024-10-17 15h12.33.330705 +0530,
-150,z,25,3,103,3,,,,,272.6419482000638,,272.62581440003123,272.6419482000638,273.6382585000247,273.62443920003716,273.62443920003716,273.62443920003716,273.62443920003716,274.6373065999942,274.6373065999942,275.0551093000686,z,1,0.40856809995602816,None,,,,,,,,,,,,,,,412268,001,2024-10-17_15h12.24.093,4.0 Motor Sequence Learning,2024.1.5,None,2024-10-17 15h12.33.330705 +0530,
-50,x,26,0,104,0,,,,,275.07299590006005,,275.05691400007345,275.07299590006005,276.06955690006725,276.0557575999992,276.0557575999992,276.0557575999992,276.0557575999992,277.0686502000317,277.0686502000317,277.50331130006816,x,1,0.42839840007945895,None,,,,,,,,,,,,,,,412268,001,2024-10-17_15h12.24.093,4.0 Motor Sequence Learning,2024.1.5,None,2024-10-17 15h12.33.330705 +0530,
150,v,26,1,105,1,,,,,277.52116910007317,,277.5050690000644,277.52116910007317,278.5341297000414,278.50347039999906,278.50347039999906,278.50347039999906,278.50347039999906,279.5167098999955,279.5167098999955,279.91828119999263,v,1,0.3987381999613717,None,,,,,,,,,,,,,,,412268,001,2024-10-17_15h12.24.093,4.0 Motor Sequence Learning,2024.1.5,None,2024-10-17 15h12.33.330705 +0530,
50,c,26,2,106,2,,,,,279.9359040000709,,279.920029800036,279.9359040000709,280.9322104000021,280.9322104000021,280.9322104000021,280.9322104000021,280.9322104000021,281.93140090000816,281.93140090000816,282.2662805999862,c,1,0.32362499996088445,None,,,,,,,,,,,,,,,412268,001,2024-10-17_15h12.24.093,4.0 Motor Sequence Learning,2024.1.5,None,2024-10-17 15h12.33.330705 +0530,
-150,z,26,3,107,3,,,,,282.28400510002393,,282.26813970005605,282.28400510002393,283.2803577000741,283.2803577000741,283.2803577000741,283.2803577000741,283.2803577000741,284.2794448999921,284.2794448999921,284.5973611000227,z,1,0.3007519000675529,None,,,,,,,,,,,,,,,412268,001,2024-10-17_15h12.24.093,4.0 Motor Sequence Learning,2024.1.5,None,2024-10-17 15h12.33.330705 +0530,
-50,x,27,0,108,0,,,,,284.6155509999953,,284.5991501000244,284.6155509999953,285.6117925000144,285.5979447000427,285.5979447000427,285.5979447000427,285.5979447000427,286.6109281000681,286.6109281000681,287.11276420007925,x,1,0.4996737000765279,None,,,,,,,,,,,,,,,412268,001,2024-10-17_15h12.24.093,4.0 Motor Sequence Learning,2024.1.5,None,2024-10-17 15h12.33.330705 +0530,
150,v,27,1,109,1,,,,,287.12986630003434,,287.11451290000696,287.12986630003434,288.1263655000366,288.1263655000366,288.1263655000366,288.1263655000366,288.1263655000366,289.1255454000784,289.1255454000784,289.4268127999967,v,1,0.28800550010055304,None,,,,,,,,,,,,,,,412268,001,2024-10-17_15h12.24.093,4.0 Motor Sequence Learning,2024.1.5,None,2024-10-17 15h12.33.330705 +0530,
50,c,27,2,110,2,,,,,289.44467700005043,,289.42878000007477,289.44467700005043,290.4408216000302,290.42737200006377,290.42737200006377,290.42737200006377,290.42737200006377,291.4401778000174,291.4401778000174,291.7249618000351,c,1,0.2749935000902042,None,,,,,,,,,,,,,,,412268,001,2024-10-17_15h12.24.093,4.0 Motor Sequence Learning,2024.1.5,None,2024-10-17 15h12.33.330705 +0530,
-150,z,27,3,111,3,,,,,291.74274000001606,,291.7271214000648,291.74274000001606,292.73915020003915,292.73915020003915,292.73915020003915,292.73915020003915,292.73915020003915,293.7383116000565,293.7383116000565,294.0897948000347,z,1,0.33673770003952086,None,,,,,,,,,,,,,,,412268,001,2024-10-17_15h12.24.093,4.0 Motor Sequence Learning,2024.1.5,None,2024-10-17 15h12.33.330705 +0530,
-50,x,28,0,112,0,,,,,294.1074627999915,,294.09179600002244,294.1074627999915,295.1035752000753,295.1035752000753,295.1035752000753,295.1035752000753,295.1035752000753,296.10309300001245,296.10309300001245,296.3878976000706,x,1,0.2722131999908015,None,,,,,,,,,,,,,,,412268,001,2024-10-17_15h12.24.093,4.0 Motor Sequence Learning,2024.1.5,None,2024-10-17 15h12.33.330705 +0530,
150,v,28,1,113,1,,,,,296.40567160001956,,296.38965410005767,296.40567160001956,297.4020125999814,297.38815530005377,297.38815530005377,297.38815530005377,297.38815530005377,298.4012012000894,298.4012012000894,298.770063700038,v,1,0.3668008999666199,None,,,,,,,,,,,,,,,412268,001,2024-10-17_15h12.24.093,4.0 Motor Sequence Learning,2024.1.5,None,2024-10-17 15h12.33.330705 +0530,
50,c,28,2,114,2,,,,,298.78708520007785,,298.7718036000151,298.78708520007785,299.78337239997927,299.78337239997927,299.78337239997927,299.78337239997927,299.78337239997927,300.7823856000323,300.7823856000323,301.0840030000545,c,1,0.28808910003863275,None,,,,,,,,,,,,,,,412268,001,2024-10-17_15h12.24.093,4.0 Motor Sequence Learning,2024.1.5,None,2024-10-17 15h12.33.330705 +0530,
-150,z,28,3,115,3,,,,,301.1019146000035,,301.08577390003484,301.1019146000035,302.09805740008596,302.08437340008095,302.08437340008095,302.08437340008095,302.08437340008095,303.09726730000693,303.09726730000693,303.4152408000082,z,1,0.30114230001345277,None,,,,,,,,,,,,,,,412268,001,2024-10-17_15h12.24.093,4.0 Motor Sequence Learning,2024.1.5,None,2024-10-17 15h12.33.330705 +0530,
-50,x,29,0,116,0,,,,,303.43327570008114,,303.41694820008706,303.43327570008114,304.42953680001665,304.41581710008904,304.41581710008904,304.41581710008904,304.41581710008904,305.42872409999836,305.42872409999836,305.73047820001375,x,1,0.2991656999802217,None,,,,,,,,,,,,,,,412268,001,2024-10-17_15h12.24.093,4.0 Motor Sequence Learning,2024.1.5,None,2024-10-17 15h12.33.330705 +0530,
150,v,29,1,117,1,,,,,305.74807259999216,,305.7322446000762,305.74807259999216,306.7443802000489,306.73062410007697,306.73062410007697,306.73062410007697,306.73062410007697,307.74351489997935,307.74351489997935,308.06160570005886,v,1,0.3057070999639109,None,,,,,,,,,,,,,,,412268,001,2024-10-17_15h12.24.093,4.0 Motor Sequence Learning,2024.1.5,None,2024-10-17 15h12.33.330705 +0530,
50,c,29,2,118,2,,,,,308.0794362000888,,308.0633529999759,308.0794362000888,309.07574620004743,309.0622190000722,309.0622190000722,309.0622190000722,309.0622190000722,310.0749062000541,310.0749062000541,310.3766095000319,c,1,0.29903350002132356,None,,,,,,,,,,,,,,,412268,001,2024-10-17_15h12.24.093,4.0 Motor Sequence Learning,2024.1.5,None,2024-10-17 15h12.33.330705 +0530,
-150,z,29,3,119,3,,,,,310.3942453999771,,310.3783968000207,310.3942453999771,311.39043879997917,311.39043879997917,311.39043879997917,311.39043879997917,311.39043879997917,312.3898036000319,312.3898036000319,312.67425699997693,z,1,0.2798061999492347,None,,,,,,,,,,,,,,,412268,001,2024-10-17_15h12.24.093,4.0 Motor Sequence Learning,2024.1.5,None,2024-10-17 15h12.33.330705 +0530,
-50,x,30,0,120,0,,,,,312.6923764999956,,312.6760037000058,312.6923764999956,313.6886193000246,313.67485130007844,313.67485130007844,313.67485130007844,313.67485130007844,314.68767170002684,314.68767170002684,314.97245800006203,x,1,0.26965509995352477,None,,,,,,,,,,,,,,,412268,001,2024-10-17_15h12.24.093,4.0 Motor Sequence Learning,2024.1.5,None,2024-10-17 15h12.33.330705 +0530,
150,v,30,1,121,1,,,,,314.9903645000886,,314.9742067999905,314.9903645000886,315.98669130005874,315.97293759998865,315.97293759998865,315.97293759998865,315.97293759998865,316.98576319997665,316.98576319997665,317.22058169997763,v,1,0.2192522999830544,None,,,,,,,,,,,,,,,412268,001,2024-10-17_15h12.24.093,4.0 Motor Sequence Learning,2024.1.5,None,2024-10-17 15h12.33.330705 +0530,
50,c,30,2,122,2,,,,,317.23862630000804,,317.2223089999752,317.23862630000804,318.23480720003136,318.22096850001253,318.22096850001253,318.22096850001253,318.22096850001253,319.2339893000899,319.2339893000899,319.4684977000579,c,1,0.23146909999195486,None,,,,,,,,,,,,,,,412268,001,2024-10-17_15h12.24.093,4.0 Motor Sequence Learning,2024.1.5,None,2024-10-17 15h12.33.330705 +0530,
-150,z,30,3,123,3,,,,,319.4862909000367,,319.47033510007896,319.4862909000367,320.4829386000056,320.4693053000374,320.4693053000374,320.4693053000374,320.4693053000374,321.48225800006185,321.48225800006185,321.79982569999993,z,1,0.30133390007540584,None,,,,,,,,,,,,,,,412268,001,2024-10-17_15h12.24.093,4.0 Motor Sequence Learning,2024.1.5,None,2024-10-17 15h12.33.330705 +0530,
-50,x,31,0,124,0,,,,,321.8178659999976,,321.80262590001803,321.8178659999976,322.8143335999921,322.800809700042,322.800809700042,322.800809700042,322.800809700042,323.8135579000227,323.8135579000227,324.0985330999829,x,1,0.2720369999296963,None,,,,,,,,,,,,,,,412268,001,2024-10-17_15h12.24.093,4.0 Motor Sequence Learning,2024.1.5,None,2024-10-17 15h12.33.330705 +0530,
150,v,31,1,125,1,,,,,324.11615430004895,,324.1002873000689,324.11615430004895,325.1124018999981,325.0988377999747,325.0988377999747,325.0988377999747,325.0988377999747,326.11166230007075,326.11166230007075,326.44648390007205,v,1,0.32109950005542487,None,,,,,,,,,,,,,,,412268,001,2024-10-17_15h12.24.093,4.0 Motor Sequence Learning,2024.1.5,None,2024-10-17 15h12.33.330705 +0530,
50,c,31,2,126,2,,,,,326.4643680000445,,326.44852890004404,326.4643680000445,327.4605968000833,327.4469410000602,327.4469410000602,327.4469410000602,327.4469410000602,328.4597469000146,328.4597469000146,328.79450309998356,c,1,0.32587219995912164,None,,,,,,,,,,,,,,,412268,001,2024-10-17_15h12.24.093,4.0 Motor Sequence Learning,2024.1.5,None,2024-10-17 15h12.33.330705 +0530,
-150,z,31,3,127,3,,,,,328.8124266000232,,328.79634190001525,328.8124266000232,329.80870210006833,329.7950045000762,329.7950045000762,329.7950045000762,329.7950045000762,330.8077247000765,330.8077247000765,331.2090093999868,z,1,0.3912852000212297,None,,,,,,,,,,,,,,,412268,001,2024-10-17_15h12.24.093,4.0 Motor Sequence Learning,2024.1.5,None,2024-10-17 15h12.33.330705 +0530,
-50,x,32,0,128,0,,,,,331.22692679998,,331.2106641000137,331.22692679998,332.2233490999788,332.2095580000896,332.2095580000896,332.2095580000896,332.2095580000896,333.2225494000595,333.2225494000595,333.5405393000692,x,1,0.30398199998307973,None,,,,,,,,,,,,,,,412268,001,2024-10-17_15h12.24.093,4.0 Motor Sequence Learning,2024.1.5,None,2024-10-17 15h12.33.330705 +0530,
150,v,32,1,129,1,,,,,333.55843840003945,,333.5425362000242,333.55843840003945,334.5548095999984,334.5410229000263,334.5410229000263,334.5410229000263,334.5410229000263,335.5539615000598,335.5539615000598,336.5214480999857,v,1,0.955246499972418,None,,,,,,,,,,,,,,,412268,001,2024-10-17_15h12.24.093,4.0 Motor Sequence Learning,2024.1.5,None,2024-10-17 15h12.33.330705 +0530,
50,c,32,2,130,2,,,,,336.53923290001694,,336.52444100007415,336.53923290001694,337.535527799977,337.5221060999902,337.5221060999902,337.5221060999902,337.5221060999902,338.53469840006437,338.53469840006437,338.86991050001234,c,1,0.32808250002563,None,,,,,,,,,,,,,,,412268,001,2024-10-17_15h12.24.093,4.0 Motor Sequence Learning,2024.1.5,None,2024-10-17 15h12.33.330705 +0530,
-150,z,32,3,131,3,,,,,338.88742679997813,,338.8716413000366,338.88742679997813,339.883660600055,339.883660600055,339.883660600055,339.883660600055,339.883660600055,340.8829798999941,340.8829798999941,341.2338770000497,z,1,0.3382776000071317,None,,,,,,,,,,,,,,,412268,001,2024-10-17_15h12.24.093,4.0 Motor Sequence Learning,2024.1.5,None,2024-10-17 15h12.33.330705 +0530,
-50,x,33,0,132,0,,,,,341.2520545000443,,341.2353955000872,341.2520545000443,342.2482358000707,342.234935500077,342.234935500077,342.234935500077,342.234935500077,343.2471529999748,343.2471529999748,343.76550640002824,x,1,0.5132584000239149,None,,,,,,,,,,,,,,,412268,001,2024-10-17_15h12.24.093,4.0 Motor Sequence Learning,2024.1.5,None,2024-10-17 15h12.33.330705 +0530,
150,v,33,1,133,1,,,,,343.783276900067,,343.7671424000291,343.783276900067,344.7796236000722,344.76601060002577,344.76601060002577,344.76601060002577,344.76601060002577,345.7787598000141,345.7787598000141,346.39647210005205,v,1,0.600539599894546,None,,,,,,,,,,,,,,,412268,001,2024-10-17_15h12.24.093,4.0 Motor Sequence Learning,2024.1.5,None,2024-10-17 15h12.33.330705 +0530,
50,c,33,2,134,2,,,,,346.4146206000587,,346.39814060006756,346.4146206000587,347.4108358999947,347.39729690004606,347.39729690004606,347.39729690004606,347.39729690004606,348.41003400005866,348.41003400005866,348.7282246000832,c,1,0.30138459999579936,None,,,,,,,,,,,,,,,412268,001,2024-10-17_15h12.24.093,4.0 Motor Sequence Learning,2024.1.5,None,2024-10-17 15h12.33.330705 +0530,
-150,z,33,3,135,3,,,,,348.7459665000206,,348.7300062000286,348.7459665000206,349.74237630004063,349.7286628000438,349.7286628000438,349.7286628000438,349.7286628000438,350.741252399981,350.741252399981,351.14313139999285,z,1,0.3999881000490859,None,,,,,,,,,,,,,,,412268,001,2024-10-17_15h12.24.093,4.0 Motor Sequence Learning,2024.1.5,None,2024-10-17 15h12.33.330705 +0530,
-50,x,34,0,136,0,,,,,351.1604087000014,,351.1461723999819,351.1604087000014,352.15683950006496,352.15683950006496,352.15683950006496,352.15683950006496,352.15683950006496,353.1559672000585,353.1559672000585,353.5075559000252,x,1,0.3403609999222681,None,,,,,,,,,,,,,,,412268,001,2024-10-17_15h12.24.093,4.0 Motor Sequence Learning,2024.1.5,None,2024-10-17 15h12.33.330705 +0530,
150,v,34,1,137,1,,,,,353.5254147000378,,353.50932980002835,353.5254147000378,354.5217048000777,354.5079924000893,354.5079924000893,354.5079924000893,354.5079924000893,355.52093160001095,355.52093160001095,355.83909250004217,v,1,0.31141620001289994,None,,,,,,,,,,,,,,,412268,001,2024-10-17_15h12.24.093,4.0 Motor Sequence Learning,2024.1.5,None,2024-10-17 15h12.33.330705 +0530,
50,c,34,2,138,2,,,,,355.8568998000119,,355.8410034000408,355.8568998000119,356.8530880000908,356.8530880000908,356.8530880000908,356.8530880000908,356.8530880000908,357.8522114000516,357.8522114000516,358.6367927000392,c,1,0.7761302000144497,None,,,,,,,,,,,,,,,412268,001,2024-10-17_15h12.24.093,4.0 Motor Sequence Learning,2024.1.5,None,2024-10-17 15h12.33.330705 +0530,
-150,z,34,3,139,3,,,,,358.6545474000741,,358.63924250006676,358.6545474000741,359.65093020000495,359.65093020000495,359.65093020000495,359.65093020000495,359.65093020000495,360.6500181000447,360.6500181000447,361.36756639997475,z,1,0.7001524999504909,None,,,,,,,,,,,,,,,412268,001,2024-10-17_15h12.24.093,4.0 Motor Sequence Learning,2024.1.5,None,2024-10-17 15h12.33.330705 +0530,
-50,x,35,0,140,0,,,,,361.3857274000766,,361.3697685999796,361.3857274000766,362.3818865000503,362.3683841000311,362.3683841000311,362.3683841000311,362.3683841000311,363.3809228000464,363.3809228000464,363.9168523000553,x,1,0.5333283999934793,None,,,,,,,,,,,,,,,412268,001,2024-10-17_15h12.24.093,4.0 Motor Sequence Learning,2024.1.5,None,2024-10-17 15h12.33.330705 +0530,
150,v,35,1,141,1,,,,,363.9335736000212,,363.91868510004133,363.9335736000212,364.92979060008656,364.92979060008656,364.92979060008656,364.92979060008656,364.92979060008656,365.9288958000252,365.9288958000252,366.62997780006845,v,1,0.6839757000561804,None,,,,,,,,,,,,,,,412268,001,2024-10-17_15h12.24.093,4.0 Motor Sequence Learning,2024.1.5,None,2024-10-17 15h12.33.330705 +0530,
50,c,35,2,142,2,,,,,366.64780010003597,,366.63228480005637,366.64780010003597,367.644149400061,367.6301812999882,367.6301812999882,367.6301812999882,367.6301812999882,368.6432751000393,368.6432751000393,369.0613921000622,c,1,0.4099998000310734,None,,,,,,,,,,,,,,,412268,001,2024-10-17_15h12.24.093,4.0 Motor Sequence Learning,2024.1.5,None,2024-10-17 15h12.33.330705 +0530,
-150,z,35,3,143,3,,,,,369.0792724000057,,369.06332489999477,369.0792724000057,370.0919134999858,370.07804110005964,370.07804110005964,370.07804110005964,370.07804110005964,371.0744803000707,371.0744803000707,372.02525469998363,z,1,0.9394604000262916,None,,,,,,,,,,,,,,,412268,001,2024-10-17_15h12.24.093,4.0 Motor Sequence Learning,2024.1.5,None,2024-10-17 15h12.33.330705 +0530,
-50,x,36,0,144,0,,,,,372.0434008000884,,372.02676849998534,372.0434008000884,373.0396737999981,373.025830800063,373.025830800063,373.025830800063,373.025830800063,374.03887040005066,374.03887040005066,374.92260990000796,x,1,0.8782342999475077,None,,,,,,,,,,,,,,,412268,001,2024-10-17_15h12.24.093,4.0 Motor Sequence Learning,2024.1.5,None,2024-10-17 15h12.33.330705 +0530,
150,v,36,1,145,1,,,,,374.9410893000895,,374.92380810005125,374.9410893000895,375.93736980005633,375.92354940006044,375.92354940006044,375.92354940006044,375.92354940006044,376.9364310000092,376.9364310000092,377.3208362000296,v,1,0.3716569000389427,None,,,,,,,,,,,,,,,412268,001,2024-10-17_15h12.24.093,4.0 Motor Sequence Learning,2024.1.5,None,2024-10-17 15h12.33.330705 +0530,
50,c,36,2,146,2,,,,,377.33906100003514,,377.32284999999683,377.33906100003514,378.3353292000247,378.3215625000885,378.3215625000885,378.3215625000885,378.3215625000885,379.3344846999971,379.3344846999971,379.75220220000483,c,1,0.40684790001250803,None,,,,,,,,,,,,,,,412268,001,2024-10-17_15h12.24.093,4.0 Motor Sequence Learning,2024.1.5,None,2024-10-17 15h12.33.330705 +0530,
-150,z,36,3,147,3,,,,,379.77027259999886,,379.7540431000525,379.77027259999886,380.766587399994,380.7530923000304,380.7530923000304,380.7530923000304,380.7530923000304,381.7656844999874,381.7656844999874,382.5002029000316,z,1,0.723720800015144,None,,,,,,,,,,,,,,,412268,001,2024-10-17_15h12.24.093,4.0 Motor Sequence Learning,2024.1.5,None,2024-10-17 15h12.33.330705 +0530,
-50,x,37,0,148,0,,,,,382.5178264999995,,382.5028841000749,382.5178264999995,383.51400399999693,383.51400399999693,383.51400399999693,383.51400399999693,383.51400399999693,384.51335270004347,384.51335270004347,386.4970379000297,x,1,1.9692607999313623,None,,,,,,,,,,,,,,,412268,001,2024-10-17_15h12.24.093,4.0 Motor Sequence Learning,2024.1.5,None,2024-10-17 15h12.33.330705 +0530,
150,v,37,1,149,1,,,,,386.51480990007985,,386.5002034000354,386.51480990007985,387.5108998999931,387.5108998999931,387.5108998999931,387.5108998999931,387.5108998999931,388.51031400007196,388.51031400007196,389.5439346000785,v,1,1.025271400110796,None,,,,,,,,,,,,,,,412268,001,2024-10-17_15h12.24.093,4.0 Motor Sequence Learning,2024.1.5,None,2024-10-17 15h12.33.330705 +0530,
50,c,37,2,150,2,,,,,389.5621681000339,,389.5455398000777,389.5621681000339,390.55836420005653,390.5449265000643,390.5449265000643,390.5449265000643,390.5449265000643,391.557570700068,391.557570700068,392.20861099998,c,1,0.6428899000165984,None,,,,,,,,,,,,,,,412268,001,2024-10-17_15h12.24.093,4.0 Motor Sequence Learning,2024.1.5,None,2024-10-17 15h12.33.330705 +0530,
-150,z,37,3,151,3,,,,,392.2269486000296,,392.2104139000876,392.2269486000296,393.22312680003233,393.2092824000865,393.2092824000865,393.2092824000865,393.2092824000865,394.22226980002597,394.22226980002597,394.97309490002226,z,1,0.7444535000249743,None,,,,,,,,,,,,,,,412268,001,2024-10-17_15h12.24.093,4.0 Motor Sequence Learning,2024.1.5,None,2024-10-17 15h12.33.330705 +0530,
-50,x,38,0,152,0,,,,,394.991354900063,,394.97486750001553,394.991354900063,395.98754740005825,395.97385090007447,395.97385090007447,395.97385090007447,395.97385090007447,396.98670680006035,396.98670680006035,397.78764510003384,x,1,0.7921842999057844,None,,,,,,,,,,,,,,,412268,001,2024-10-17_15h12.24.093,4.0 Motor Sequence Learning,2024.1.5,None,2024-10-17 15h12.33.330705 +0530,
150,v,38,1,153,1,,,,,397.80559910007287,,397.78926550003234,397.80559910007287,398.8017603000626,398.78831129998434,398.78831129998434,398.78831129998434,398.78831129998434,399.8010517000221,399.8010517000221,400.6516313999891,v,1,0.8358289999887347,None,,,,,,,,,,,,,,,412268,001,2024-10-17_15h12.24.093,4.0 Motor Sequence Learning,2024.1.5,None,2024-10-17 15h12.33.330705 +0530,
50,c,38,2,154,2,,,,,400.66975180001464,,400.65356250002515,400.66975180001464,401.66616510006133,401.6522361000534,401.6522361000534,401.6522361000534,401.6522361000534,402.66539119998924,402.66539119998924,403.28292380005587,c,1,0.6004739999771118,None,,,,,,,,,,,,,,,412268,001,2024-10-17_15h12.24.093,4.0 Motor Sequence Learning,2024.1.5,None,2024-10-17 15h12.33.330705 +0530,
-150,z,38,3,155,3,,,,,403.30084939999506,,403.2847014000872,403.30084939999506,404.29728810000233,404.2838257000549,404.2838257000549,404.2838257000549,404.2838257000549,405.29643740004394,405.29643740004394,406.0302701999899,z,1,0.7254143999889493,None,,,,,,,,,,,,,,,412268,001,2024-10-17_15h12.24.093,4.0 Motor Sequence Learning,2024.1.5,None,2024-10-17 15h12.33.330705 +0530,
-50,x,39,0,156,0,,,,,406.04882830008864,,406.0313180000521,406.04882830008864,407.0449614999816,407.031473500072,407.031473500072,407.031473500072,407.031473500072,408.0441716000205,408.0441716000205,408.6290825000033,x,1,0.5811144999461249,None,,,,,,,,,,,,,,,412268,001,2024-10-17_15h12.24.093,4.0 Motor Sequence Learning,2024.1.5,None,2024-10-17 15h12.33.330705 +0530,
150,v,39,1,157,1,,,,,408.6465522000799,,408.63221630000044,408.6465522000799,409.6429096000502,409.6429096000502,409.6429096000502,409.6429096000502,409.6429096000502,410.6420071000466,410.6420071000466,411.8427188000642,v,1,1.1875059999292716,None,,,,,,,,,,,,,,,412268,001,2024-10-17_15h12.24.093,4.0 Motor Sequence Learning,2024.1.5,None,2024-10-17 15h12.33.330705 +0530,
50,c,39,2,158,2,,,,,411.860705900006,,411.8457797000883,411.860705900006,412.85694460000377,412.85694460000377,412.85694460000377,412.85694460000377,412.85694460000377,413.8561513000168,413.8561513000168,414.78963620006107,c,1,0.9306847000261769,None,,,,,,,,,,,,,,,412268,001,2024-10-17_15h12.24.093,4.0 Motor Sequence Learning,2024.1.5,None,2024-10-17 15h12.33.330705 +0530,
-150,z,39,3,159,3,,,,,414.80824929999653,,414.7905872000847,414.80824929999653,415.80457070004195,415.79082460002974,415.79082460002974,415.79082460002974,415.79082460002974,416.8037277000258,416.8037277000258,417.637307099998,z,1,0.8269999000476673,None,,,,,,,,,,,,,,,412268,001,2024-10-17_15h12.24.093,4.0 Motor Sequence Learning,2024.1.5,None,2024-10-17 15h12.33.330705 +0530,
-50,x,40,0,160,0,,,,,417.65599320002366,,417.63818900007755,417.65599320002366,418.65224299998954,418.6384083000012,418.6384083000012,418.6384083000012,418.6384083000012,419.65142440004274,419.65142440004274,420.41939190006815,x,1,0.7655222999164835,None,,,,,,,,,,,,,,,412268,001,2024-10-17_15h12.24.093,4.0 Motor Sequence Learning,2024.1.5,None,2024-10-17 15h12.33.330705 +0530,
150,v,40,1,161,1,,,,,420.436977299978,,420.4211491000606,420.436977299978,421.4333415000001,421.4333415000001,421.4333415000001,421.4333415000001,421.4333415000001,422.43239680002443,422.43239680002443,423.25019450008404,v,1,0.8101673999335617,None,,,,,,,,,,,,,,,412268,001,2024-10-17_15h12.24.093,4.0 Motor Sequence Learning,2024.1.5,None,2024-10-17 15h12.33.330705 +0530,
50,c,40,2,162,2,,,,,423.268245400046,,423.2519420000026,423.268245400046,424.280964900041,424.25057300005574,424.25057300005574,424.25057300005574,424.25057300005574,425.2635171000147,425.2635171000147,426.5647454999853,c,1,1.2991461999481544,None,,,,,,,,,,,,,,,412268,001,2024-10-17_15h12.24.093,4.0 Motor Sequence Learning,2024.1.5,None,2024-10-17 15h12.33.330705 +0530,
-150,z,40,3,163,3,,,,,426.5819066000404,,426.5665031999815,426.5819066000404,427.5783236999996,427.5783236999996,427.5783236999996,427.5783236999996,427.5783236999996,428.5773201000411,428.5773201000411,429.3954314000439,z,1,0.8155495999380946,None,,,,,,,,,,,,,,,412268,001,2024-10-17_15h12.24.093,4.0 Motor Sequence Learning,2024.1.5,None,2024-10-17 15h12.33.330705 +0530,
-50,x,41,0,164,0,,,,,429.41309629997704,,429.39716749999207,429.41309629997704,430.4093742000405,430.4093742000405,430.4093742000405,430.4093742000405,430.4093742000405,431.4085033000447,431.4085033000447,432.15960790007375,x,1,0.73466729989741,None,,,,,,,,,,,,,,,412268,001,2024-10-17_15h12.24.093,4.0 Motor Sequence Learning,2024.1.5,None,2024-10-17 15h12.33.330705 +0530,
150,v,41,1,165,1,,,,,432.1774522999767,,432.1613585000159,432.1774522999767,433.17361050006,433.16012250003405,433.16012250003405,433.16012250003405,433.16012250003405,434.1727356000338,434.1727356000338,435.0238264000509,v,1,0.8375480000395328,None,,,,,,,,,,,,,,,412268,001,2024-10-17_15h12.24.093,4.0 Motor Sequence Learning,2024.1.5,None,2024-10-17 15h12.33.330705 +0530,
50,c,41,2,166,2,,,,,435.04171300004236,,435.0256116000237,435.04171300004236,436.03804330003913,436.0242298999801,436.0242298999801,436.0242298999801,436.0242298999801,437.03721510001924,437.03721510001924,438.22135580005124,c,1,1.1750367000931874,None,,,,,,,,,,,,,,,412268,001,2024-10-17_15h12.24.093,4.0 Motor Sequence Learning,2024.1.5,None,2024-10-17 15h12.33.330705 +0530,
-150,z,41,3,167,3,,,,,438.2390969999833,,438.22312099998817,438.2390969999833,439.2354114999762,439.22160520008765,439.22160520008765,439.22160520008765,439.22160520008765,440.23446230008267,440.23446230008267,440.6362251000246,z,1,0.39421350008342415,None,,,,,,,,,,,,,,,412268,001,2024-10-17_15h12.24.093,4.0 Motor Sequence Learning,2024.1.5,None,2024-10-17 15h12.33.330705 +0530,
-50,x,42,0,168,0,,,,,440.65383149997797,,440.637946199975,440.65383149997797,441.650207699975,441.650207699975,441.650207699975,441.650207699975,441.650207699975,442.6492446999764,442.6492446999764,443.2338418000145,x,1,0.5741113000549376,None,,,,,,,,,,,,,,,412268,001,2024-10-17_15h12.24.093,4.0 Motor Sequence Learning,2024.1.5,None,2024-10-17 15h12.33.330705 +0530,
150,v,42,1,169,1,,,,,443.25175559998024,,443.235601900029,443.25175559998024,444.2479690000182,444.2343258999754,444.2343258999754,444.2343258999754,444.2343258999754,445.2471432000166,445.2471432000166,446.04817650001496,v,1,0.7877441000891849,None,,,,,,,,,,,,,,,412268,001,2024-10-17_15h12.24.093,4.0 Motor Sequence Learning,2024.1.5,None,2024-10-17 15h12.33.330705 +0530,
50,c,42,2,170,2,,,,,446.0661700000055,,446.0499313999899,446.0661700000055,447.0622383999871,447.0485484000528,447.0485484000528,447.0485484000528,447.0485484000528,448.0614723999752,448.0614723999752,448.9126271000132,c,1,0.8448501999955624,None,,,,,,,,,,,,,,,412268,001,2024-10-17_15h12.24.093,4.0 Motor Sequence Learning,2024.1.5,None,2024-10-17 15h12.33.330705 +0530,
-150,z,42,3,171,3,,,,,448.93066279997583,,448.9145883000456,448.93066279997583,449.94332199997734,449.9297434000764,449.9297434000764,449.9297434000764,449.9297434000764,450.9259305000305,450.9259305000305,451.7934410000453,z,1,0.8563381999265403,None,,,,,,,,,,,,,,,412268,001,2024-10-17_15h12.24.093,4.0 Motor Sequence Learning,2024.1.5,None,2024-10-17 15h12.33.330705 +0530,
-50,x,43,0,172,0,,,,,451.8113169000717,,451.79523400007747,451.8113169000717,452.80759700003546,452.7940549000632,452.7940549000632,452.7940549000632,452.7940549000632,453.8065579000395,453.8065579000395,454.62398730008863,x,1,0.8022026000544429,None,,,,,,,,,,,,,,,412268,001,2024-10-17_15h12.24.093,4.0 Motor Sequence Learning,2024.1.5,None,2024-10-17 15h12.33.330705 +0530,
150,v,43,1,173,1,,,,,454.64231570006814,,454.6258743000217,454.64231570006814,455.6386690000072,455.6248641000129,455.6248641000129,455.6248641000129,455.6248641000129,456.6377974000061,456.6377974000061,457.5220915999962,v,1,0.8680059999460354,None,,,,,,,,,,,,,,,412268,001,2024-10-17_15h12.24.093,4.0 Motor Sequence Learning,2024.1.5,None,2024-10-17 15h12.33.330705 +0530,
50,c,43,2,174,2,,,,,457.53984430001583,,457.5237387000816,457.53984430001583,458.5361727999989,458.52251660008915,458.52251660008915,458.52251660008915,458.52251660008915,459.53540529997554,459.53540529997554,460.3033282000106,c,1,0.7513143999967724,None,,,,,,,,,,,,,,,412268,001,2024-10-17_15h12.24.093,4.0 Motor Sequence Learning,2024.1.5,None,2024-10-17 15h12.33.330705 +0530,
-150,z,43,3,175,3,,,,,460.32103710004594,,460.30507810006384,460.32103710004594,461.31730650004465,461.31730650004465,461.31730650004465,461.31730650004465,461.31730650004465,462.3164487000322,462.3164487000322,462.90083220007364,z,1,0.5805984999751672,None,,,,,,,,,,,,,,,412268,001,2024-10-17_15h12.24.093,4.0 Motor Sequence Learning,2024.1.5,None,2024-10-17 15h12.33.330705 +0530,
-50,x,44,0,176,0,,,,,462.91883930005133,,462.90255580004305,462.91883930005133,463.9150971000781,463.90136820008047,463.90136820008047,463.90136820008047,463.90136820008047,464.914275099989,464.914275099989,465.36574580008164,x,1,0.442037699976936,None,,,,,,,,,,,,,,,412268,001,2024-10-17_15h12.24.093,4.0 Motor Sequence Learning,2024.1.5,None,2024-10-17 15h12.33.330705 +0530,
150,v,44,1,177,1,,,,,465.38352030003443,,465.36748830007855,465.38352030003443,466.3796751999762,466.3796751999762,466.3796751999762,466.3796751999762,466.3796751999762,467.37894990004133,467.37894990004133,468.2464718000265,v,1,0.863021899946034,None,,,,,,,,,,,,,,,412268,001,2024-10-17_15h12.24.093,4.0 Motor Sequence Learning,2024.1.5,None,2024-10-17 15h12.33.330705 +0530,
50,c,44,2,178,2,,,,,468.2644969000248,,468.2481621999759,468.2644969000248,469.26075460005086,469.24694490002,469.24694490002,469.24694490002,469.24694490002,470.26001780002844,470.26001780002844,471.06075469998177,c,1,0.7834307999582961,None,,,,,,,,,,,,,,,412268,001,2024-10-17_15h12.24.093,4.0 Motor Sequence Learning,2024.1.5,None,2024-10-17 15h12.33.330705 +0530,
-150,z,44,3,179,3,,,,,471.0789286000654,,471.0624834999908,471.0789286000654,472.0751075000735,472.0613906000508,472.0613906000508,472.0613906000508,472.0613906000508,473.0743546000449,473.0743546000449,473.95965069998056,z,1,0.8828994000796229,None,,,,,,,,,,,,,,,412268,001,2024-10-17_15h12.24.093,4.0 Motor Sequence Learning,2024.1.5,None,2024-10-17 15h12.33.330705 +0530,
-50,x,45,0,180,0,,,,,473.9766942000715,,473.9613756000763,473.9766942000715,474.9892801999813,474.97577120002825,474.97577120002825,474.97577120002825,474.97577120002825,475.9719091000734,475.9719091000734,476.6895064000273,x,1,0.7112664000596851,None,,,,,,,,,,,,,,,412268,001,2024-10-17_15h12.24.093,4.0 Motor Sequence Learning,2024.1.5,None,2024-10-17 15h12.33.330705 +0530,
150,v,45,1,181,1,,,,,476.7074478000868,,476.69122610008344,476.7074478000868,477.7038889999967,477.68990029999986,477.68990029999986,477.68990029999986,477.68990029999986,478.70305430004373,478.70305430004373,479.8204835000215,v,1,1.1146815000101924,None,,,,,,,,,,,,,,,412268,001,2024-10-17_15h12.24.093,4.0 Motor Sequence Learning,2024.1.5,None,2024-10-17 15h12.33.330705 +0530,
50,c,45,2,182,2,,,,,479.83824469998945,,479.8221989000449,479.83824469998945,480.8344356000889,480.82083290000446,480.82083290000446,480.82083290000446,480.82083290000446,481.8337767000776,481.8337767000776,482.61836800002493,c,1,0.7718069000402465,None,,,,,,,,,,,,,,,412268,001,2024-10-17_15h12.24.093,4.0 Motor Sequence Learning,2024.1.5,None,2024-10-17 15h12.33.330705 +0530,
-150,z,45,3,183,3,,,,,482.63617820001673,,482.6200933000073,482.63617820001673,483.6322782000061,483.6322782000061,483.6322782000061,483.6322782000061,483.6322782000061,484.6311673000455,484.6311673000455,485.44907010009047,z,1,0.8014961000299081,None,,,,,,,,,,,,,,,412268,001,2024-10-17_15h12.24.093,4.0 Motor Sequence Learning,2024.1.5,None,2024-10-17 15h12.33.330705 +0530,
-50,x,46,0,184,0,,,,,485.46699129999615,,485.4507997999899,485.46699129999615,486.4632289999863,486.4495826000348,486.4495826000348,486.4495826000348,486.4495826000348,487.4624299000716,487.4624299000716,488.4133999000769,x,1,0.9428242000285536,None,,,,,,,,,,,,,,,412268,001,2024-10-17_15h12.24.093,4.0 Motor Sequence Learning,2024.1.5,None,2024-10-17 15h12.33.330705 +0530,
150,v,46,1,185,1,,,,,488.4311526999809,,488.4151554000564,488.4311526999809,489.42743280006107,489.4137632000493,489.4137632000493,489.4137632000493,489.4137632000493,490.42667239997536,490.42667239997536,491.27742280007806,v,1,0.840487000066787,None,,,,,,,,,,,,,,,412268,001,2024-10-17_15h12.24.093,4.0 Motor Sequence Learning,2024.1.5,None,2024-10-17 15h12.33.330705 +0530,
50,c,46,2,186,2,,,,,491.2955786000239,,491.2791460000444,491.2955786000239,492.2918580999831,492.2781797000207,492.2781797000207,492.2781797000207,492.2781797000207,493.2909858999774,493.2909858999774,494.2084278999828,c,1,0.9001835000235587,None,,,,,,,,,,,,,,,412268,001,2024-10-17_15h12.24.093,4.0 Motor Sequence Learning,2024.1.5,None,2024-10-17 15h12.33.330705 +0530,
-150,z,46,3,187,3,,,,,494.22652590007056,,494.2101761000231,494.22652590007056,495.22267140005715,495.2090278000105,495.2090278000105,495.2090278000105,495.2090278000105,496.2219637000235,496.2219637000235,497.12323180004023,z,1,0.8960387000115588,None,,,,,,,,,,,,,,,412268,001,2024-10-17_15h12.24.093,4.0 Motor Sequence Learning,2024.1.5,None,2024-10-17 15h12.33.330705 +0530,
-50,x,47,0,188,0,,,,,497.1408776000608,,497.12502370006405,497.1408776000608,498.137019900023,498.137019900023,498.137019900023,498.137019900023,498.137019900023,499.13619109999854,499.13619109999854,499.95395640004426,x,1,0.8142157000256702,None,,,,,,,,,,,,,,,412268,001,2024-10-17_15h12.24.093,4.0 Motor Sequence Learning,2024.1.5,None,2024-10-17 15h12.33.330705 +0530,
150,v,47,1,189,1,,,,,499.9717733000871,,499.9556699000532,499.9717733000871,500.9679162000539,500.9543702000519,500.9543702000519,500.9543702000519,500.9543702000519,501.9671350000426,501.9671350000426,502.8514400999993,v,1,0.8791757000144571,None,,,,,,,,,,,,,,,412268,001,2024-10-17_15h12.24.093,4.0 Motor Sequence Learning,2024.1.5,None,2024-10-17 15h12.33.330705 +0530,
50,c,47,2,190,2,,,,,502.8694465000881,,502.8532256000908,502.8694465000881,503.86556180007756,503.85192799998913,503.85192799998913,503.85192799998913,503.85192799998913,504.864742500009,504.864742500009,505.56583560002036,c,1,0.6904356998857111,None,,,,,,,,,,,,,,,412268,001,2024-10-17_15h12.24.093,4.0 Motor Sequence Learning,2024.1.5,None,2024-10-17 15h12.33.330705 +0530,
-150,z,47,3,191,3,,,,,505.5837733000517,,505.56759450002573,505.5837733000517,506.5801783000352,506.5661965000909,506.5661965000909,506.5661965000909,506.5661965000909,507.57921590004116,507.57921590004116,508.4136111000553,z,1,0.8178327999776229,None,,,,,,,,,,,,,,,412268,001,2024-10-17_15h12.24.093,4.0 Motor Sequence Learning,2024.1.5,None,2024-10-17 15h12.33.330705 +0530,
-50,x,48,0,192,0,,,,,508.431574700051,,508.4153589999769,508.431574700051,509.4278092000168,509.41395840002224,509.41395840002224,509.41395840002224,509.41395840002224,510.4268127999967,510.4268127999967,511.9273729000706,x,1,1.4866842000046745,None,,,,,,,,,,,,,,,412268,001,2024-10-17_15h12.24.093,4.0 Motor Sequence Learning,2024.1.5,None,2024-10-17 15h12.33.330705 +0530,
150,v,48,1,193,1,,,,,511.9455208000727,,511.92931350006256,511.9455208000727,512.9580736000789,512.9278024000814,512.9278024000814,512.9278024000814,512.9278024000814,513.9406573000597,513.9406573000597,515.1082288000034,v,1,1.1649943999946117,None,,,,,,,,,,,,,,,412268,001,2024-10-17_15h12.24.093,4.0 Motor Sequence Learning,2024.1.5,None,2024-10-17 15h12.33.330705 +0530,
50,c,48,2,194,2,,,,,515.125973300077,,515.109987600008,515.125973300077,516.1222518000286,516.1222518000286,516.1222518000286,516.1222518000286,516.1222518000286,517.1214957999764,517.1214957999764,518.3550983000314,c,1,1.2219844999490306,None,,,,,,,,,,,,,,,412268,001,2024-10-17_15h12.24.093,4.0 Motor Sequence Learning,2024.1.5,None,2024-10-17 15h12.33.330705 +0530,
-150,z,48,3,195,3,,,,,518.3733046000125,,518.3568109000335,518.3733046000125,519.3695382000878,519.3557521000039,519.3557521000039,519.3557521000039,519.3557521000039,520.3687535000499,520.3687535000499,521.1864373000572,z,1,0.8100899000419304,None,,,,,,,,,,,,,,,412268,001,2024-10-17_15h12.24.093,4.0 Motor Sequence Learning,2024.1.5,None,2024-10-17 15h12.33.330705 +0530,
-50,x,49,0,196,0,,,,,521.2041368000209,,521.1881554999854,521.2041368000209,522.2005326000508,522.186844300013,522.186844300013,522.186844300013,522.186844300013,523.1997100000735,523.1997100000735,523.9175217000302,x,1,0.7144863000139594,None,,,,,,,,,,,,,,,412268,001,2024-10-17_15h12.24.093,4.0 Motor Sequence Learning,2024.1.5,None,2024-10-17 15h12.33.330705 +0530,
150,v,49,1,197,1,,,,,523.9355463000247,,523.91925060004,523.9355463000247,524.9317221000092,524.9180275000399,524.9180275000399,524.9180275000399,524.9180275000399,525.9307487000478,525.9307487000478,527.2148809999926,v,1,1.2786655999952927,None,,,,,,,,,,,,,,,412268,001,2024-10-17_15h12.24.093,4.0 Motor Sequence Learning,2024.1.5,None,2024-10-17 15h12.33.330705 +0530,
50,c,49,2,198,2,,,,,527.2327032000758,,527.2166865000036,527.2327032000758,528.2288983999752,528.2152896000771,528.2152896000771,528.2152896000771,528.2152896000771,529.2282621000195,529.2282621000195,529.9962170000654,c,1,0.7657787000061944,None,,,,,,,,,,,,,,,412268,001,2024-10-17_15h12.24.093,4.0 Motor Sequence Learning,2024.1.5,None,2024-10-17 15h12.33.330705 +0530,
-150,z,49,3,199,3,,,,,530.0137395000784,,529.9979740000563,530.0137395000784,531.0100382000674,531.0100382000674,531.0100382000674,531.0100382000674,531.0100382000674,532.0091200000606,532.0091200000606,532.8768956999993,z,1,0.8597945000510663,None,,,,,,,,,,,,,,,412268,001,2024-10-17_15h12.24.093,4.0 Motor Sequence Learning,2024.1.5,None,2024-10-17 15h12.33.330705 +0530,
-150,z,,,,,0,0,0,3,532.9060774000827,,,,,,,,,,,,,,,,532.9003611999797,532.9060774000827,533.8910283000441,533.8910283000441,533.8910283000441,533.8910283000441,533.907618300058,534.8900081000756,534.8900081000756,535.7420216000173,z,1,0.8494557000230998,None,412268,001,2024-10-17_15h12.24.093,4.0 Motor Sequence Learning,2024.1.5,None,2024-10-17 15h12.33.330705 +0530,
-150,z,,,,,0,1,1,3,535.7562193999765,,,,,,,,,,,,,,,,535.7443708999781,535.7562193999765,536.7553246000316,536.7553246000316,536.7553246000316,536.7553246000316,536.7553246000316,537.7545305000385,537.7545305000385,538.5553525000578,z,1,0.7956129999365658,None,412268,001,2024-10-17_15h12.24.093,4.0 Motor Sequence Learning,2024.1.5,None,2024-10-17 15h12.33.330705 +0530,
-150,z,,,,,0,2,2,3,538.570550100063,,,,,,,,,,,,,,,,538.5571646000026,538.570550100063,539.5696640000679,539.5696640000679,539.5696640000679,539.5696640000679,539.5696640000679,540.5687044999795,540.5687044999795,541.2697801000904,z,1,0.6972199000883847,None,412268,001,2024-10-17_15h12.24.093,4.0 Motor Sequence Learning,2024.1.5,None,2024-10-17 15h12.33.330705 +0530,
50,c,,,,,0,3,3,2,541.284953000024,,,,,,,,,,,,,,,,541.2715176000493,541.284953000024,542.2838022999931,542.2838022999931,542.2838022999931,542.2838022999931,542.2838022999931,543.2830403000116,543.2830403000116,544.4509419000242,c,1,1.1627918999874964,None,412268,001,2024-10-17_15h12.24.093,4.0 Motor Sequence Learning,2024.1.5,None,2024-10-17 15h12.33.330705 +0530,
-50,x,,,,,1,0,4,0,544.4656914999941,,,,,,,,,,,,,,,,544.4526962999953,544.4656914999941,545.464807100012,545.464807100012,545.464807100012,545.464807100012,545.464807100012,546.4639373000246,546.4639373000246,547.6475941999815,x,1,1.1664235000498593,None,412268,001,2024-10-17_15h12.24.093,4.0 Motor Sequence Learning,2024.1.5,None,2024-10-17 15h12.33.330705 +0530,
50,c,,,,,1,1,5,2,547.6629467000021,,,,,,,,,,,,,,,,547.6502173000481,547.6629467000021,548.662230100017,548.662230100017,548.662230100017,548.662230100017,548.662230100017,549.6613242999883,549.6613242999883,550.5957237000111,c,1,0.9265032999683172,None,412268,001,2024-10-17_15h12.24.093,4.0 Motor Sequence Learning,2024.1.5,None,2024-10-17 15h12.33.330705 +0530,
150,v,,,,,1,2,6,1,550.6108034000499,,,,,,,,,,,,,,,,550.5975179000525,550.6108034000499,551.6095813000575,551.6095813000575,551.6095813000575,551.6095813000575,551.6095813000575,552.6088872000109,552.6088872000109,553.6268233000301,v,1,1.0152584000024945,None,412268,001,2024-10-17_15h12.24.093,4.0 Motor Sequence Learning,2024.1.5,None,2024-10-17 15h12.33.330705 +0530,
-150,z,,,,,1,3,7,3,553.6414772000862,,,,,,,,,,,,,,,,553.6285670000361,553.6414772000862,554.6404967000708,554.6404967000708,554.6404967000708,554.6404967000708,554.6404967000708,555.6398175000213,555.6398175000213,556.5251263000537,z,1,0.882771399919875,None,412268,001,2024-10-17_15h12.24.093,4.0 Motor Sequence Learning,2024.1.5,None,2024-10-17 15h12.33.330705 +0530,
-50,x,,,,,2,0,8,0,556.5389694999903,,,,,,,,,,,,,,,,556.5271609000629,556.5389694999903,557.5382566000335,557.5382566000335,557.5382566000335,557.5382566000335,557.5382566000335,558.5373214000138,558.5373214000138,559.2057657000842,x,1,0.6654096998972818,None,412268,001,2024-10-17_15h12.24.093,4.0 Motor Sequence Learning,2024.1.5,None,2024-10-17 15h12.33.330705 +0530,
150,v,,,,,2,1,9,1,559.2201060000807,,,,,,,,,,,,,,,,559.2075410999823,559.2201060000807,560.219215100049,560.219215100049,560.219215100049,560.219215100049,560.219215100049,561.218554400024,561.218554400024,562.0029025999829,v,1,0.774006399908103,None,412268,001,2024-10-17_15h12.24.093,4.0 Motor Sequence Learning,2024.1.5,None,2024-10-17 15h12.33.330705 +0530,
150,v,,,,,2,2,10,1,562.0179277000716,,,,,,,,,,,,,,,,562.004723399994,562.0179277000716,563.0167751000263,563.0167751000263,563.0167751000263,563.0167751000263,563.0167751000263,564.0160333000822,564.0160333000822,564.933822400053,v,1,0.9001553000416607,None,412268,001,2024-10-17_15h12.24.093,4.0 Motor Sequence Learning,2024.1.5,None,2024-10-17 15h12.33.330705 +0530,
150,v,,,,,2,3,11,1,564.9490227000788,,,,,,,,,,,,,,,,564.9356427000603,564.9490227000788,565.9480469999835,565.9480469999835,565.9480469999835,565.9480469999835,565.9645772000076,566.9470828999765,566.9470828999765,567.8321808000328,v,1,0.8827426000498235,None,412268,001,2024-10-17_15h12.24.093,4.0 Motor Sequence Learning,2024.1.5,None,2024-10-17 15h12.33.330705 +0530,
150,v,,,,,3,0,12,1,567.8464081999846,,,,,,,,,,,,,,,,567.833921100013,567.8464081999846,568.845659899991,568.845659899991,568.845659899991,568.845659899991,568.845659899991,569.8448452000739,569.8448452000739,570.5457051000558,v,1,0.6835875000106171,None,412268,001,2024-10-17_15h12.24.093,4.0 Motor Sequence Learning,2024.1.5,None,2024-10-17 15h12.33.330705 +0530,
-150,z,,,,,3,1,13,3,570.5608723000623,,,,,,,,,,,,,,,,570.5474270000122,570.5608723000623,571.5600180000765,571.5600180000765,571.5600180000765,571.5600180000765,571.5600180000765,572.5591589000542,572.5591589000542,573.5100910000037,z,1,0.9441124000586569,None,412268,001,2024-10-17_15h12.24.093,4.0 Motor Sequence Learning,2024.1.5,None,2024-10-17 15h12.33.330705 +0530,
-50,x,,,,,3,2,14,0,573.5251184999943,,,,,,,,,,,,,,,,573.5118809000123,573.5251184999943,574.5242697000504,574.5242697000504,574.5242697000504,574.5242697000504,574.5242697000504,575.5241927000461,575.5241927000461,576.3247878000839,x,1,0.7943566999165341,None,412268,001,2024-10-17_15h12.24.093,4.0 Motor Sequence Learning,2024.1.5,None,2024-10-17 15h12.33.330705 +0530,
-150,z,,,,,3,3,15,3,576.339563800022,,,,,,,,,,,,,,,,576.3266101999907,576.339563800022,577.3385214000009,577.3385214000009,577.3385214000009,577.3385214000009,577.3385214000009,578.3378025999991,578.3378025999991,579.1888149000006,z,1,0.8418609000509605,None,412268,001,2024-10-17_15h12.24.093,4.0 Motor Sequence Learning,2024.1.5,None,2024-10-17 15h12.33.330705 +0530,
-50,x,,,,,4,0,16,0,579.2036060000537,,,,,,,,,,,,,,,,579.1908533000387,579.2036060000537,580.2028444000753,580.2028444000753,580.2028444000753,580.2028444000753,580.2028444000753,581.201931699994,581.201931699994,582.219883600017,x,1,1.0099668999901041,None,412268,001,2024-10-17_15h12.24.093,4.0 Motor Sequence Learning,2024.1.5,None,2024-10-17 15h12.33.330705 +0530,
-50,x,,,,,4,1,17,0,582.2346782999812,,,,,,,,,,,,,,,,582.2216184000717,582.2346782999812,583.23369620007,583.23369620007,583.23369620007,583.23369620007,583.23369620007,584.2328388000606,584.2328388000606,584.834225300001,x,1,0.5983068000059575,None,412268,001,2024-10-17_15h12.24.093,4.0 Motor Sequence Learning,2024.1.5,None,2024-10-17 15h12.33.330705 +0530,
150,v,,,,,4,2,18,1,584.8491527000442,,,,,,,,,,,,,,,,584.8359787000809,584.8491527000442,585.8482404000824,585.8482404000824,585.8482404000824,585.8482404000824,585.8482404000824,586.8473002000246,586.8473002000246,587.7482338000555,v,1,0.8912992000114173,None,412268,001,2024-10-17_15h12.24.093,4.0 Motor Sequence Learning,2024.1.5,None,2024-10-17 15h12.33.330705 +0530,
-50,x,,,,,4,3,19,0,587.7631244000513,,,,,,,,,,,,,,,,587.7499595000409,587.7631244000513,588.7624507000437,588.7624507000437,588.7624507000437,588.7624507000437,588.7624507000437,589.7616833000211,589.7616833000211,590.4970567000564,x,1,0.7332801999291405,None,412268,001,2024-10-17_15h12.24.093,4.0 Motor Sequence Learning,2024.1.5,None,2024-10-17 15h12.33.330705 +0530,
50,c,,,,,5,0,20,2,590.5111464000074,,,,,,,,,,,,,,,,590.4988316000672,590.5111464000074,591.5103322999785,591.5103322999785,591.5103322999785,591.5103322999785,591.5103322999785,592.5094065000303,592.5094065000303,593.6769260000437,c,1,1.1603806999046355,None,412268,001,2024-10-17_15h12.24.093,4.0 Motor Sequence Learning,2024.1.5,None,2024-10-17 15h12.33.330705 +0530,
-50,x,,,,,5,1,21,0,593.6918079000898,,,,,,,,,,,,,,,,593.6787593000336,593.6918079000898,594.6908740000799,594.6908740000799,594.6908740000799,594.6908740000799,594.6908740000799,595.6901802000357,595.6901802000357,596.6244127000682,x,1,0.920510399970226,None,412268,001,2024-10-17_15h12.24.093,4.0 Motor Sequence Learning,2024.1.5,None,2024-10-17 15h12.33.330705 +0530,
-50,x,,,,,5,2,22,0,596.6394507000223,,,,,,,,,,,,,,,,596.6261785000097,596.6394507000223,597.6383698000573,597.6383698000573,597.6383698000573,597.6383698000573,597.6383698000573,598.6376266999869,598.6376266999869,599.4388425999787,x,1,0.7896188000449911,None,412268,001,2024-10-17_15h12.24.093,4.0 Motor Sequence Learning,2024.1.5,None,2024-10-17 15h12.33.330705 +0530,
-50,x,,,,,5,3,23,0,599.4538742000004,,,,,,,,,,,,,,,,599.4413938000798,599.4538742000004,600.4529872999992,600.4529872999992,600.4529872999992,600.4529872999992,600.4529872999992,601.4521872000769,601.4521872000769,602.4359501000727,x,1,0.9666458000428975,None,412268,001,2024-10-17_15h12.24.093,4.0 Motor Sequence Learning,2024.1.5,None,2024-10-17 15h12.33.330705 +0530,
-150,z,,,,,6,0,24,3,602.4514471000293,,,,,,,,,,,,,,,,602.437610700028,602.4514471000293,603.4506162999896,603.4506162999896,603.4506162999896,603.4506162999896,603.4671622000169,604.4495263000717,604.4495263000717,605.6513910000212,z,1,1.1993852000450715,None,412268,001,2024-10-17_15h12.24.093,4.0 Motor Sequence Learning,2024.1.5,None,2024-10-17 15h12.33.330705 +0530,
150,v,,,,,6,1,25,1,605.6653903999832,,,,,,,,,,,,,,,,605.6531505000312,605.6653903999832,606.6644823000534,606.6644823000534,606.6644823000534,606.6644823000534,606.6644823000534,607.6635991000803,607.6635991000803,609.0641945999814,v,1,1.3837001000065356,None,412268,001,2024-10-17_15h12.24.093,4.0 Motor Sequence Learning,2024.1.5,None,2024-10-17 15h12.33.330705 +0530,
150,v,,,,,6,2,26,1,609.0792671000818,,,,,,,,,,,,,,,,609.0663939000806,609.0792671000818,610.0783049000893,610.0783049000893,610.0783049000893,610.0783049000893,610.0783049000893,611.077371600084,611.077371600084,612.3447828000644,v,1,1.2572475000051782,None,412268,001,2024-10-17_15h12.24.093,4.0 Motor Sequence Learning,2024.1.5,None,2024-10-17 15h12.33.330705 +0530,
150,v,,,,,6,3,27,1,612.3601031000726,,,,,,,,,,,,,,,,612.3465484000044,612.3601031000726,613.3590388000011,613.3590388000011,613.3590388000011,613.3590388000011,613.3755158000859,614.3582300000126,614.3582300000126,615.6920680999756,v,1,1.3174714999040589,None,412268,001,2024-10-17_15h12.24.093,4.0 Motor Sequence Learning,2024.1.5,None,2024-10-17 15h12.33.330705 +0530,
-50,x,,,,,7,0,28,0,615.7071290999884,,,,,,,,,,,,,,,,615.6937843000051,615.7071290999884,616.7062057000585,616.7062057000585,616.7062057000585,616.7062057000585,616.7062057000585,617.7054589000763,617.7054589000763,619.6721396000357,x,1,1.9612242999719456,None,412268,001,2024-10-17_15h12.24.093,4.0 Motor Sequence Learning,2024.1.5,None,2024-10-17 15h12.33.330705 +0530,
-150,z,,,,,7,1,29,3,619.6872283000266,,,,,,,,,,,,,,,,619.6739399000071,619.6872283000266,620.686261099996,620.686261099996,620.686261099996,620.686261099996,620.686261099996,621.6855468000285,621.6855468000285,622.8369761999929,z,1,1.1491745999082923,None,412268,001,2024-10-17_15h12.24.093,4.0 Motor Sequence Learning,2024.1.5,None,2024-10-17 15h12.33.330705 +0530,
50,c,,,,,7,2,30,2,622.8511831000214,,,,,,,,,,,,,,,,622.8387509000022,622.8511831000214,623.8501916000387,623.8501916000387,623.8501916000387,623.8501916000387,623.8667012000224,624.8495527000632,624.8495527000632,625.8004958999809,c,1,0.9430151000851765,None,412268,001,2024-10-17_15h12.24.093,4.0 Motor Sequence Learning,2024.1.5,None,2024-10-17 15h12.33.330705 +0530,
50,c,,,,,7,3,31,2,625.8154441000661,,,,,,,,,,,,,,,,625.8022469000425,625.8154441000661,626.8145766999805,626.8145766999805,626.8145766999805,626.8145766999805,626.8145766999805,627.8137227999978,627.8137227999978,628.6645146000665,c,1,0.836688100011088,None,412268,001,2024-10-17_15h12.24.093,4.0 Motor Sequence Learning,2024.1.5,None,2024-10-17 15h12.33.330705 +0530,
-50,x,,,,,8,0,32,0,628.6798444000306,,,,,,,,,,,,,,,,628.6662361000199,628.6798444000306,629.6789717000211,629.6789717000211,629.6789717000211,629.6789717000211,629.6789717000211,630.6780385000166,630.6780385000166,631.6122655000072,x,1,0.9287766999332234,None,412268,001,2024-10-17_15h12.24.093,4.0 Motor Sequence Learning,2024.1.5,None,2024-10-17 15h12.33.330705 +0530,
-50,x,,,,,8,1,33,0,631.6274004000006,,,,,,,,,,,,,,,,631.6141726999776,631.6274004000006,632.6265856000828,632.6265856000828,632.6265856000828,632.6265856000828,632.6265856000828,633.6256938000442,633.6256938000442,635.0598047000822,x,1,1.4215084000024945,None,412268,001,2024-10-17_15h12.24.093,4.0 Motor Sequence Learning,2024.1.5,None,2024-10-17 15h12.33.330705 +0530,
-150,z,,,,,8,2,34,3,635.0744996999856,,,,,,,,,,,,,,,,635.0617757000728,635.0744996999856,636.0736535000615,636.0736535000615,636.0736535000615,636.0736535000615,636.0736535000615,637.0727820000611,637.0727820000611,638.2069383000489,z,1,1.128529299981892,None,412268,001,2024-10-17_15h12.24.093,4.0 Motor Sequence Learning,2024.1.5,None,2024-10-17 15h12.33.330705 +0530,
50,c,,,,,8,3,35,2,638.222036799998,,,,,,,,,,,,,,,,638.2087496999884,638.222036799998,639.221089300001,639.221089300001,639.221089300001,639.221089300001,639.221089300001,640.2203156000469,640.2203156000469,641.0878932999913,c,1,0.8585292000789195,None,412268,001,2024-10-17_15h12.24.093,4.0 Motor Sequence Learning,2024.1.5,None,2024-10-17 15h12.33.330705 +0530,
-50,x,,,,,9,0,36,0,641.1028805000242,,,,,,,,,,,,,,,,641.0896429000422,641.1028805000242,642.1020245000254,642.1020245000254,642.1020245000254,642.1020245000254,642.1020245000254,643.1011707000434,643.1011707000434,643.9188276000787,x,1,0.8037925000535324,None,412268,001,2024-10-17_15h12.24.093,4.0 Motor Sequence Learning,2024.1.5,None,2024-10-17 15h12.33.330705 +0530,
150,v,,,,,9,1,37,1,643.9340510000475,,,,,,,,,,,,,,,,643.9205811000429,643.9340510000475,644.933030800079,644.933030800079,644.933030800079,644.933030800079,644.933030800079,645.9323138999753,645.9323138999753,646.7665802000556,v,1,0.8185772000579163,None,412268,001,2024-10-17_15h12.24.093,4.0 Motor Sequence Learning,2024.1.5,None,2024-10-17 15h12.33.330705 +0530,
-150,z,,,,,9,2,38,3,646.7815843999851,,,,,,,,,,,,,,,,646.7683478000108,646.7815843999851,647.7805971000344,647.7805971000344,647.7805971000344,647.7805971000344,647.7805971000344,648.7799308000831,648.7799308000831,649.6141522000544,z,1,0.8227400999749079,None,412268,001,2024-10-17_15h12.24.093,4.0 Motor Sequence Learning,2024.1.5,None,2024-10-17 15h12.33.330705 +0530,
-50,x,,,,,9,3,39,0,649.6292608000804,,,,,,,,,,,,,,,,649.6161582000786,649.6292608000804,650.6282484000549,650.6282484000549,650.6282484000549,650.6282484000549,650.6282484000549,651.6274930000072,651.6274930000072,652.4949149000458,x,1,0.8502223999239504,None,412268,001,2024-10-17_15h12.24.093,4.0 Motor Sequence Learning,2024.1.5,None,2024-10-17 15h12.33.330705 +0530,
150,v,,,,,10,0,40,1,652.5102532000747,,,,,,,,,,,,,,,,652.4966627000831,652.5102532000747,653.5094404000556,653.5094404000556,653.5094404000556,653.5094404000556,653.526106000063,654.5085301999934,654.5085301999934,655.5425842000404,v,1,1.0222137999953702,None,412268,001,2024-10-17_15h12.24.093,4.0 Motor Sequence Learning,2024.1.5,None,2024-10-17 15h12.33.330705 +0530,
-50,x,,,,,10,1,41,0,655.5577240000712,,,,,,,,,,,,,,,,655.5443389000138,655.5577240000712,656.5570392999798,656.5570392999798,656.5570392999798,656.5570392999798,656.5734084000578,657.55593770009,657.55593770009,658.423803600017,x,1,0.8572487999917939,None,412268,001,2024-10-17_15h12.24.093,4.0 Motor Sequence Learning,2024.1.5,None,2024-10-17 15h12.33.330705 +0530,
50,c,,,,,10,2,42,2,658.4386589999776,,,,,,,,,,,,,,,,658.4255271999864,658.4386589999776,659.4376904000528,659.4376904000528,659.4376904000528,659.4376904000528,659.4376904000528,660.4369441000745,660.4369441000745,661.6044196999865,c,1,1.1557757999980822,None,412268,001,2024-10-17_15h12.24.093,4.0 Motor Sequence Learning,2024.1.5,None,2024-10-17 15h12.33.330705 +0530,
-150,z,,,,,10,3,43,3,661.619485000032,,,,,,,,,,,,,,,,661.6062027000589,661.619485000032,662.6185118000722,662.6185118000722,662.6185118000722,662.6185118000722,662.6185118000722,663.6176362000406,663.6176362000406,664.7684373999946,z,1,1.1394543000496924,None,412268,001,2024-10-17_15h12.24.093,4.0 Motor Sequence Learning,2024.1.5,None,2024-10-17 15h12.33.330705 +0530,
-50,x,,,,,11,0,44,0,664.7833296000026,,,,,,,,,,,,,,,,664.7701825000113,664.7833296000026,665.7824233000865,665.7824233000865,665.7824233000865,665.7824233000865,665.7824233000865,666.7817682999885,666.7817682999885,667.6162250000052,x,1,0.8209931999444962,None,412268,001,2024-10-17_15h12.24.093,4.0 Motor Sequence Learning,2024.1.5,None,2024-10-17 15h12.33.330705 +0530,
150,v,,,,,11,1,45,1,667.6311429999769,,,,,,,,,,,,,,,,667.6180342000443,667.6311429999769,668.6302082000766,668.6302082000766,668.6302082000766,668.6302082000766,668.6302082000766,669.6293025000487,669.6293025000487,670.7468646999914,v,1,1.1015243000583723,None,412268,001,2024-10-17_15h12.24.093,4.0 Motor Sequence Learning,2024.1.5,None,2024-10-17 15h12.33.330705 +0530,
50,c,,,,,11,2,46,2,670.7618020999944,,,,,,,,,,,,,,,,670.7486162000569,670.7618020999944,671.7607372000348,671.7607372000348,671.7607372000348,671.7607372000348,671.7773228000151,672.7601902000606,672.7601902000606,673.9277200000361,c,1,1.152627700008452,None,412268,001,2024-10-17_15h12.24.093,4.0 Motor Sequence Learning,2024.1.5,None,2024-10-17 15h12.33.330705 +0530,
-50,x,,,,,11,3,47,0,673.9426291000564,,,,,,,,,,,,,,,,673.9295621999772,673.9426291000564,674.9416740000015,674.9416740000015,674.9416740000015,674.9416740000015,674.9416740000015,675.9408289000858,675.9408289000858,676.9417654999997,x,1,0.988563199993223,None,412268,001,2024-10-17_15h12.24.093,4.0 Motor Sequence Learning,2024.1.5,None,2024-10-17 15h12.33.330705 +0530,
-150,z,,,,,12,0,48,3,676.9568622000515,,,,,,,,,,,,,,,,676.9435310000554,676.9568622000515,677.9559457000578,677.9559457000578,677.9559457000578,677.9559457000578,677.9559457000578,678.9551167000318,678.9551167000318,679.8559906000737,z,1,0.8891132000135258,None,412268,001,2024-10-17_15h12.24.093,4.0 Motor Sequence Learning,2024.1.5,None,2024-10-17 15h12.33.330705 +0530,
150,v,,,,,12,1,49,1,679.8707354000071,,,,,,,,,,,,,,,,679.8577629000647,679.8707354000071,680.8702045000391,680.8702045000391,680.8702045000391,680.8702045000391,680.8702045000391,681.8693424999947,681.8693424999947,683.0533072000835,v,1,1.1699904000852257,None,412268,001,2024-10-17_15h12.24.093,4.0 Motor Sequence Learning,2024.1.5,None,2024-10-17 15h12.33.330705 +0530,
-50,x,,,,,12,2,50,0,683.0683813000796,,,,,,,,,,,,,,,,683.0550654000835,683.0683813000796,684.0675284999888,684.0675284999888,684.0675284999888,684.0675284999888,684.0675284999888,685.0665529000107,685.0665529000107,686.1342914000852,x,1,1.0511169999372214,None,412268,001,2024-10-17_15h12.24.093,4.0 Motor Sequence Learning,2024.1.5,None,2024-10-17 15h12.33.330705 +0530,
-150,z,,,,,12,3,51,3,686.1491252999986,,,,,,,,,,,,,,,,686.1360509999795,686.1491252999986,687.1483972000424,687.1483972000424,687.1483972000424,687.1483972000424,687.1483972000424,688.1475919000804,688.1475919000804,689.0318479000125,z,1,0.8714853000128642,None,412268,001,2024-10-17_15h12.24.093,4.0 Motor Sequence Learning,2024.1.5,None,2024-10-17 15h12.33.330705 +0530,
-150,z,,,,,13,0,52,3,689.0467690000078,,,,,,,,,,,,,,,,689.0336717000464,689.0467690000078,690.045952500077,690.045952500077,690.045952500077,690.045952500077,690.045952500077,691.0450944000622,691.0450944000622,692.079535100027,z,1,1.0295017000753433,None,412268,001,2024-10-17_15h12.24.093,4.0 Motor Sequence Learning,2024.1.5,None,2024-10-17 15h12.33.330705 +0530,
-50,x,,,,,13,1,53,0,692.0942834999878,,,,,,,,,,,,,,,,692.0813080000225,692.0942834999878,693.0934449000051,693.0934449000051,693.0934449000051,693.0934449000051,693.0934449000051,694.0925964000635,694.0925964000635,694.9603696999839,x,1,0.8631068000104278,None,412268,001,2024-10-17_15h12.24.093,4.0 Motor Sequence Learning,2024.1.5,None,2024-10-17 15h12.33.330705 +0530,
-50,x,,,,,13,2,54,0,694.975321099977,,,,,,,,,,,,,,,,694.9621531000594,694.975321099977,695.974184300052,695.974184300052,695.974184300052,695.974184300052,695.9908390999772,696.9736520000733,696.9736520000733,697.8913051000563,x,1,0.9037295000161976,None,412268,001,2024-10-17_15h12.24.093,4.0 Motor Sequence Learning,2024.1.5,None,2024-10-17 15h12.33.330705 +0530,
-150,z,,,,,13,3,55,3,697.9063153000316,,,,,,,,,,,,,,,,697.8930961000733,697.9063153000316,698.9051278000697,698.9051278000697,698.9051278000697,698.9051278000697,698.9051278000697,699.9042250000639,699.9042250000639,700.7388768000528,z,1,0.8228622999740764,None,412268,001,2024-10-17_15h12.24.093,4.0 Motor Sequence Learning,2024.1.5,None,2024-10-17 15h12.33.330705 +0530,
150,v,,,,,14,0,56,1,700.7539989000652,,,,,,,,,,,,,,,,700.7407967000036,700.7539989000652,701.7528675000649,701.7528675000649,701.7528675000649,701.7528675000649,701.7528675000649,702.752039700048,702.752039700048,704.7688920000801,v,1,1.9993288000114262,None,412268,001,2024-10-17_15h12.24.093,4.0 Motor Sequence Learning,2024.1.5,None,2024-10-17 15h12.33.330705 +0530,
150,v,,,,,14,1,57,1,704.7839633000549,,,,,,,,,,,,,,,,704.7706626000581,704.7839633000549,705.7830882000271,705.7830882000271,705.7830882000271,705.7830882000271,705.7830882000271,706.7821764000691,706.7821764000691,707.6833096999908,v,1,0.893971599987708,None,412268,001,2024-10-17_15h12.24.093,4.0 Motor Sequence Learning,2024.1.5,None,2024-10-17 15h12.33.330705 +0530,
150,v,,,,,14,2,58,1,707.6981888000155,,,,,,,,,,,,,,,,707.6850873000221,707.6981888000155,708.6971844000509,708.6971844000509,708.6971844000509,708.6971844000509,708.6971844000509,709.6962598999962,709.6962598999962,710.7305898000486,v,1,1.0170335000148043,None,412268,001,2024-10-17_15h12.24.093,4.0 Motor Sequence Learning,2024.1.5,None,2024-10-17 15h12.33.330705 +0530,
-50,x,,,,,14,3,59,0,710.7457737000659,,,,,,,,,,,,,,,,710.7326552000595,710.7457737000659,711.7446617999813,711.7446617999813,711.7446617999813,711.7446617999813,711.7446617999813,712.7439237000654,712.7439237000654,713.9446417000145,x,1,1.1880915999645367,None,412268,001,2024-10-17_15h12.24.093,4.0 Motor Sequence Learning,2024.1.5,None,2024-10-17 15h12.33.330705 +0530,
50,c,,,,,15,0,60,2,713.9596931000706,,,,,,,,,,,,,,,,713.9464111999841,713.9596931000706,714.9588637000415,714.9588637000415,714.9588637000415,714.9588637000415,714.9588637000415,715.9580901000882,715.9580901000882,717.092125800089,c,1,1.122974899946712,None,412268,001,2024-10-17_15h12.24.093,4.0 Motor Sequence Learning,2024.1.5,None,2024-10-17 15h12.33.330705 +0530,
-150,z,,,,,15,1,61,3,717.1071063000709,,,,,,,,,,,,,,,,717.0939966000151,717.1071063000709,718.1063204000238,718.1063204000238,718.1063204000238,718.1063204000238,718.1063204000238,719.1054128999822,719.1054128999822,720.0563781000674,z,1,0.9400420000310987,None,412268,001,2024-10-17_15h12.24.093,4.0 Motor Sequence Learning,2024.1.5,None,2024-10-17 15h12.33.330705 +0530,
-50,x,,,,,15,2,62,0,720.071401800029,,,,,,,,,,,,,,,,720.0581478000386,720.071401800029,721.0704088000348,721.0704088000348,721.0704088000348,721.0704088000348,721.0704088000348,722.0695851000492,722.0695851000492,723.0207370000426,x,1,0.9419855000451207,None,412268,001,2024-10-17_15h12.24.093,4.0 Motor Sequence Learning,2024.1.5,None,2024-10-17 15h12.33.330705 +0530,
-150,z,,,,,15,3,63,3,723.0355745999841,,,,,,,,,,,,,,,,723.0224933000281,723.0355745999841,724.0346209000563,724.0346209000563,724.0346209000563,724.0346209000563,724.0346209000563,725.0338794999989,725.0338794999989,725.9181730999844,z,1,0.8687046999111772,None,412268,001,2024-10-17_15h12.24.093,4.0 Motor Sequence Learning,2024.1.5,None,2024-10-17 15h12.33.330705 +0530,
