image,orientation,corrAns,trials.thisRepN,trials.thisTrialN,trials.thisN,trials.thisIndex,thisRow.t,notes,Greeting.started,greeting1.started,key_resp.started,Greeting.stopped,key_resp.keys,key_resp.rt,key_resp.duration,trial.started,fixation.started,response.started,fixation.stopped,logos.started,trial.stopped,response.keys,response.corr,response.rt,response.duration,thanks.started,thankyou.started,thanks.stopped,participant,session,date,expName,psychopyVersion,frameRate,expStart,
,,,,,,,,,0.0020006997510790825,0.005904399789869785,0.005904399789869785,21.69247239967808,space,21.665292599704117,None,,,,,,,,,,,,,,1,001,2024-12-04_15h41.16.992,Mental Rotation,2024.1.5,None,2024-12-04 15h41.30.011627 +0530,
ig 2,80,right,0,0,0,11,21.733730599749833,,,,,,,,,21.710777000058442,21.733730599749833,21.733730599749833,22.243979400023818,22.716487600002438,23.84445669967681,right,1,2.1077338000759482,None,,,,1,001,2024-12-04_15h41.16.992,Mental Rotation,2024.1.5,None,2024-12-04 15h41.30.011627 +0530,
twitch 1,0,left,0,1,1,6,23.87659059977159,,,,,,,,,23.848513700067997,23.87659059977159,23.87659059977159,24.375238799955696,24.858693399932235,26.109363900031894,left,1,2.21944999974221,None,,,,1,001,2024-12-04_15h41.16.992,Mental Rotation,2024.1.5,None,2024-12-04 15h41.30.011627 +0530,
ig 1,0,left,0,2,2,4,26.137345399707556,,,,,,,,,26.1103820996359,26.137345399707556,26.137345399707556,26.64013349963352,27.123424999881536,28.007573599927127,left,1,1.8532334002666175,None,,,,1,001,2024-12-04_15h41.16.992,Mental Rotation,2024.1.5,None,2024-12-04 15h41.30.011627 +0530,
UF 3,90,right,0,3,3,16,28.03351099975407,,,,,,,,,28.00863859988749,28.03351099975407,28.03351099975407,28.538602499756962,29.02188179967925,31.288335099816322,left,0,3.2492817998863757,None,,,,1,001,2024-12-04_15h41.16.992,Mental Rotation,2024.1.5,None,2024-12-04 15h41.30.011627 +0530,
UF 1,0,left,0,4,4,14,31.31451619975269,,,,,,,,,31.289901599753648,31.31451619975269,31.31451619975269,31.819072699639946,32.30263300007209,34.919003599788994,right,0,3.6005116002634168,None,,,,1,001,2024-12-04_15h41.16.992,Mental Rotation,2024.1.5,None,2024-12-04 15h41.30.011627 +0530,
CN 1,0,left,0,5,5,5,34.942456299904734,,,,,,,,,34.92007019976154,34.942456299904734,34.942456299904734,35.44968209974468,35.93297369964421,37.53303089970723,left,1,2.574855299666524,None,,,,1,001,2024-12-04_15h41.16.992,Mental Rotation,2024.1.5,None,2024-12-04 15h41.30.011627 +0530,
UF 4,10,right,0,6,6,17,37.55633329972625,,,,,,,,,37.53448019968346,37.55633329972625,37.55633329972625,38.063853399828076,38.54753729980439,39.48191409977153,right,1,1.90984410000965,None,,,,1,001,2024-12-04_15h41.16.992,Mental Rotation,2024.1.5,None,2024-12-04 15h41.30.011627 +0530,
CN 2,100,right,0,7,7,12,39.50300069991499,,,,,,,,,39.48347939969972,39.50300069991499,39.50300069991499,40.012374099809676,40.495741500053555,41.42975750006735,left,0,1.9222173001617193,None,,,,1,001,2024-12-04_15h41.16.992,Mental Rotation,2024.1.5,None,2024-12-04 15h41.30.011627 +0530,
fb 2,20,right,0,8,8,8,41.45464110001922,,,,,,,,,41.430814599618316,41.45464110001922,41.45464110001922,41.960772699676454,42.44415679993108,42.97854719962925,right,1,1.5175196998752654,None,,,,1,001,2024-12-04_15h41.16.992,Mental Rotation,2024.1.5,None,2024-12-04 15h41.30.011627 +0530,
twitter 1,0,left,0,9,9,3,43.00594080006704,,,,,,,,,42.97958990000188,43.00594080006704,43.00594080006704,43.509512399788946,43.992815599776804,44.61049349978566,left,1,1.589855299796909,None,,,,1,001,2024-12-04_15h41.16.992,Mental Rotation,2024.1.5,None,2024-12-04 15h41.30.011627 +0530,
UF 2,140,right,0,10,10,15,44.63880389975384,,,,,,,,,44.61152969999239,44.63880389975384,44.63880389975384,45.14160929992795,45.6249199998565,47.108937699813396,right,1,2.4643799997866154,None,,,,1,001,2024-12-04_15h41.16.992,Mental Rotation,2024.1.5,None,2024-12-04 15h41.30.011627 +0530,
twitter 2,60,right,0,11,11,10,47.13179760007188,,,,,,,,,47.11011979961768,47.13179760007188,47.13179760007188,47.63944709999487,48.12266919994727,48.70697239972651,right,1,1.562974600121379,None,,,,1,001,2024-12-04_15h41.16.992,Mental Rotation,2024.1.5,None,2024-12-04 15h41.30.011627 +0530,
twitch 2,120,right,0,12,12,13,48.73083749972284,,,,,,,,,48.70803859969601,48.73083749972284,48.73083749972284,49.23814719961956,49.721356600057334,50.156718199606985,right,1,1.4227211000397801,None,,,,1,001,2024-12-04_15h41.16.992,Mental Rotation,2024.1.5,None,2024-12-04 15h41.30.011627 +0530,
adidas 2,0,right,0,13,13,7,50.179374400060624,,,,,,,,,50.15782209997997,50.179374400060624,50.179374400060624,50.68690689979121,51.17030009999871,51.78811019985005,left,0,1.594784699846059,None,,,,1,001,2024-12-04_15h41.16.992,Mental Rotation,2024.1.5,None,2024-12-04 15h41.30.011627 +0530,
google 2,40,right,0,14,14,9,51.8116882997565,,,,,,,,,51.78925699973479,51.8116882997565,51.8116882997565,52.31880709994584,52.80219789966941,53.454338300041854,right,1,1.6402686000801623,None,,,,1,001,2024-12-04_15h41.16.992,Mental Rotation,2024.1.5,None,2024-12-04 15h41.30.011627 +0530,
fb 1,0,left,0,15,15,1,53.48303260002285,,,,,,,,,53.4557853997685,53.48303260002285,53.48303260002285,53.984286199789494,54.46763079985976,55.368321399670094,left,1,1.880161200184375,None,,,,1,001,2024-12-04_15h41.16.992,Mental Rotation,2024.1.5,None,2024-12-04 15h41.30.011627 +0530,
adidas 1,0,left,0,16,16,0,55.38964159972966,,,,,,,,,55.3693673000671,55.38964159972966,55.38964159972966,55.89933109981939,56.382611699867994,56.88358709961176,right,0,1.4845930999144912,None,,,,1,001,2024-12-04_15h41.16.992,Mental Rotation,2024.1.5,None,2024-12-04 15h41.30.011627 +0530,
google 1,0,left,0,17,17,2,56.910061799921095,,,,,,,,,56.884663600008935,56.910061799921095,56.910061799921095,57.41472060000524,57.89770739991218,58.46604879992083,left,1,1.5453501995652914,None,,,,1,001,2024-12-04_15h41.16.992,Mental Rotation,2024.1.5,None,2024-12-04 15h41.30.011627 +0530,
twitch 1,0,left,1,0,18,6,58.49558679992333,,,,,,,,,58.467131400015205,58.49558679992333,58.49558679992333,58.99656459968537,59.48003559978679,59.86461449973285,left,1,1.363333800341934,None,,,,1,001,2024-12-04_15h41.16.992,Mental Rotation,2024.1.5,None,2024-12-04 15h41.30.011627 +0530,
google 1,0,left,1,1,19,2,59.889051099773496,,,,,,,,,59.86562709975988,59.889051099773496,59.889051099773496,60.39544179989025,60.878950299695134,61.66391129978001,left,1,1.7726480001583695,None,,,,1,001,2024-12-04_15h41.16.992,Mental Rotation,2024.1.5,None,2024-12-04 15h41.30.011627 +0530,
twitter 1,0,left,1,2,20,3,61.68141909968108,,,,,,,,,61.665304800029844,61.68141909968108,61.68141909968108,62.19398600002751,62.6774261998944,63.7280914997682,left,1,2.04029620019719,None,,,,1,001,2024-12-04_15h41.16.992,Mental Rotation,2024.1.5,None,2024-12-04 15h41.30.011627 +0530,
ig 2,80,right,1,3,21,11,63.748052899725735,,,,,,,,,63.729125999845564,63.748052899725735,63.748052899725735,64.25915519986302,64.74229109985754,66.79196109995246,right,1,3.0279870997183025,None,,,,1,001,2024-12-04_15h41.16.992,Mental Rotation,2024.1.5,None,2024-12-04 15h41.30.011627 +0530,
twitch 2,120,right,1,4,22,13,66.81464009964839,,,,,,,,,66.79305369965732,66.81464009964839,66.81464009964839,67.32324149971828,67.80656249960884,68.67407189961523,left,0,1.8492084997706115,None,,,,1,001,2024-12-04_15h41.16.992,Mental Rotation,2024.1.5,None,2024-12-04 15h41.30.011627 +0530,
fb 1,0,left,1,5,23,1,68.70016429992393,,,,,,,,,68.67528679966927,68.70016429992393,68.70016429992393,69.20504130003974,69.68832409987226,70.28965839976445,right,0,1.5868970998562872,None,,,,1,001,2024-12-04_15h41.16.992,Mental Rotation,2024.1.5,None,2024-12-04 15h41.30.011627 +0530,
UF 1,0,left,1,6,24,14,70.31726759998128,,,,,,,,,70.29070129990578,70.31726759998128,70.31726759998128,70.82025759993121,71.30359669961035,74.31973119964823,left,1,3.985120799858123,None,,,,1,001,2024-12-04_15h41.16.992,Mental Rotation,2024.1.5,None,2024-12-04 15h41.30.011627 +0530,
UF 4,10,right,1,7,25,17,74.3410718999803,,,,,,,,,74.32083799969405,74.3410718999803,74.3410718999803,74.85020909970626,75.33357949974015,76.95153229963034,right,1,2.5932385995984077,None,,,,1,001,2024-12-04_15h41.16.992,Mental Rotation,2024.1.5,None,2024-12-04 15h41.30.011627 +0530,
UF 2,140,right,1,8,26,15,76.97693459969014,,,,,,,,,76.95265610003844,76.97693459969014,76.97693459969014,77.4814396998845,77.96467519970611,78.48238639999181,right,1,1.501315400004387,None,,,,1,001,2024-12-04_15h41.16.992,Mental Rotation,2024.1.5,None,2024-12-04 15h41.30.011627 +0530,
adidas 1,0,left,1,9,27,0,78.50117619987577,,,,,,,,,78.48360050003976,78.50117619987577,78.50117619987577,79.01358749996871,79.49685629969463,80.16435119975358,left,1,1.6559367002919316,None,,,,1,001,2024-12-04_15h41.16.992,Mental Rotation,2024.1.5,None,2024-12-04 15h41.30.011627 +0530,
CN 2,100,right,1,10,28,12,80.18307319981977,,,,,,,,,80.16538259992376,80.18307319981977,80.18307319981977,80.69540950004011,81.17879759985954,82.67967409966514,left,0,2.489817100111395,None,,,,1,001,2024-12-04_15h41.16.992,Mental Rotation,2024.1.5,None,2024-12-04 15h41.30.011627 +0530,
adidas 2,0,right,1,11,29,7,82.70071269990876,,,,,,,,,82.68112139962614,82.70071269990876,82.70071269990876,83.21013400005177,83.69328049989417,84.37771689984947,right,1,1.6598634999245405,None,,,,1,001,2024-12-04_15h41.16.992,Mental Rotation,2024.1.5,None,2024-12-04 15h41.30.011627 +0530,
google 2,40,right,1,12,30,9,84.3987600998953,,,,,,,,,84.37886469997466,84.3987600998953,84.3987600998953,84.90869680000469,85.39194269990548,86.02644759975374,left,0,1.620107099879533,None,,,,1,001,2024-12-04_15h41.16.992,Mental Rotation,2024.1.5,None,2024-12-04 15h41.30.011627 +0530,
ig 1,0,left,1,13,31,4,86.051600900013,,,,,,,,,86.02753790002316,86.051600900013,86.051600900013,86.55723450006917,87.04052679985762,87.87489790003747,left,1,1.8121631001122296,None,,,,1,001,2024-12-04_15h41.16.992,Mental Rotation,2024.1.5,None,2024-12-04 15h41.30.011627 +0530,
UF 3,90,right,1,14,32,16,87.89554829988629,,,,,,,,,87.87595580006018,87.89554829988629,87.89554829988629,88.40605290001258,88.88903139997274,92.93757670000196,right,1,5.030548700131476,None,,,,1,001,2024-12-04_15h41.16.992,Mental Rotation,2024.1.5,None,2024-12-04 15h41.30.011627 +0530,
twitter 2,60,right,1,15,33,10,92.9585940996185,,,,,,,,,92.938868700061,92.9585940996185,92.9585940996185,93.46826560003683,93.95154909975827,96.11774999974295,left,0,3.145036599598825,None,,,,1,001,2024-12-04_15h41.16.992,Mental Rotation,2024.1.5,None,2024-12-04 15h41.30.011627 +0530,
fb 2,20,right,1,16,34,8,96.13949249964207,,,,,,,,,96.11913969973102,96.13949249964207,96.13949249964207,96.64888719981536,97.13246600003913,97.74986869981512,right,1,1.5951323001645505,None,,,,1,001,2024-12-04_15h41.16.992,Mental Rotation,2024.1.5,None,2024-12-04 15h41.30.011627 +0530,
CN 1,0,left,1,17,35,5,97.7706400998868,,,,,,,,,97.75088649988174,97.7706400998868,97.7706400998868,98.28098369995132,98.7641296996735,99.81542679993436,left,1,2.0380882997997105,None,,,,1,001,2024-12-04_15h41.16.992,Mental Rotation,2024.1.5,None,2024-12-04 15h41.30.011627 +0530,
twitter 2,60,right,2,0,36,10,99.83654619986191,,,,,,,,,99.81672739982605,99.83654619986191,99.83654619986191,100.34588879998773,100.82921659993008,101.39779850002378,right,1,1.558084599673748,None,,,,1,001,2024-12-04_15h41.16.992,Mental Rotation,2024.1.5,None,2024-12-04 15h41.30.011627 +0530,
adidas 2,0,right,2,1,37,7,101.41951559996232,,,,,,,,,101.39888540003449,101.41951559996232,101.41951559996232,101.92789419973269,102.41122359968722,103.21190320001915,left,0,1.7869627000764012,None,,,,1,001,2024-12-04_15h41.16.992,Mental Rotation,2024.1.5,None,2024-12-04 15h41.30.011627 +0530,
fb 2,20,right,2,2,38,8,103.23603049991652,,,,,,,,,103.21294979983941,103.23603049991652,103.23603049991652,103.74302939977497,104.22648860001937,106.00948179978877,right,1,2.7636946998536587,None,,,,1,001,2024-12-04_15h41.16.992,Mental Rotation,2024.1.5,None,2024-12-04 15h41.30.011627 +0530,
twitter 1,0,left,2,3,39,3,106.03186509991065,,,,,,,,,106.01045909989625,106.03186509991065,106.03186509991065,106.54083730001003,107.0240344000049,107.60875550005585,left,1,1.5624680002219975,None,,,,1,001,2024-12-04_15h41.16.992,Mental Rotation,2024.1.5,None,2024-12-04 15h41.30.011627 +0530,
ig 1,0,left,2,4,40,4,107.63010969990864,,,,,,,,,107.61004309961572,107.63010969990864,107.63010969990864,108.13958329986781,108.62268289970234,109.29026329983026,left,1,1.6463751001283526,None,,,,1,001,2024-12-04_15h41.16.992,Mental Rotation,2024.1.5,None,2024-12-04 15h41.30.011627 +0530,
google 2,40,right,2,5,41,9,109.31570729985833,,,,,,,,,109.29128369968385,109.31570729985833,109.31570729985833,109.82159129995853,110.30455539980903,111.02210989966989,right,1,1.6924264999106526,None,,,,1,001,2024-12-04_15h41.16.992,Mental Rotation,2024.1.5,None,2024-12-04 15h41.30.011627 +0530,
fb 1,0,left,2,6,42,1,111.04961670003831,,,,,,,,,111.02317789988592,111.04961670003831,111.04961670003831,111.55344409961253,112.03669689968228,112.67095039971173,left,1,1.6120547000318766,None,,,,1,001,2024-12-04_15h41.16.992,Mental Rotation,2024.1.5,None,2024-12-04 15h41.30.011627 +0530,
UF 4,10,right,2,7,43,17,112.69237979967147,,,,,,,,,112.67211209982634,112.69237979967147,112.69237979967147,113.20172729995102,113.68535539973527,114.81940979976207,right,1,2.1128948996774852,None,,,,1,001,2024-12-04_15h41.16.992,Mental Rotation,2024.1.5,None,2024-12-04 15h41.30.011627 +0530,
ig 2,80,right,2,8,44,11,114.83747459994629,,,,,,,,,114.82038649963215,114.83747459994629,114.83747459994629,115.35011959960684,115.83352999994531,117.28385589970276,right,1,2.4428330999799073,None,,,,1,001,2024-12-04_15h41.16.992,Mental Rotation,2024.1.5,None,2024-12-04 15h41.30.011627 +0530,
CN 2,100,right,2,9,45,12,117.30225559975952,,,,,,,,,117.28494359971955,117.30225559975952,117.30225559975952,117.81489929975942,118.29796199966222,119.19899090006948,right,1,1.881440700031817,None,,,,1,001,2024-12-04_15h41.16.992,Mental Rotation,2024.1.5,None,2024-12-04 15h41.30.011627 +0530,
adidas 1,0,left,2,10,46,0,119.21836339961737,,,,,,,,,119.2000265000388,119.21836339961737,119.21836339961737,119.73001879965886,120.21307529974729,121.48100619995967,left,1,2.2565770000219345,None,,,,1,001,2024-12-04_15h41.16.992,Mental Rotation,2024.1.5,None,2024-12-04 15h41.30.011627 +0530,
UF 2,140,right,2,11,47,15,121.50557299982756,,,,,,,,,121.48277219990268,121.50557299982756,121.50557299982756,122.01156899984926,122.49471039976925,123.8623090996407,right,1,2.351915900129825,None,,,,1,001,2024-12-04_15h41.16.992,Mental Rotation,2024.1.5,None,2024-12-04 15h41.30.011627 +0530,
twitch 2,120,right,2,12,48,13,123.8818806996569,,,,,,,,,123.86336529999971,123.8818806996569,123.8818806996569,124.39281009975821,124.87609290005639,126.17670599976555,right,1,2.2840035003609955,None,,,,1,001,2024-12-04_15h41.16.992,Mental Rotation,2024.1.5,None,2024-12-04 15h41.30.011627 +0530,
twitch 1,0,left,2,13,49,6,126.20045339968055,,,,,,,,,126.17832409963012,126.20045339968055,126.20045339968055,126.70735109969974,127.1905205999501,127.85892169969156,left,1,1.651561299804598,None,,,,1,001,2024-12-04_15h41.16.992,Mental Rotation,2024.1.5,None,2024-12-04 15h41.30.011627 +0530,
google 1,0,left,2,14,50,2,127.88249820005149,,,,,,,,,127.86004019994289,127.88249820005149,127.88249820005149,128.3892831997946,128.8724806997925,129.92266589961946,right,0,2.033959399908781,None,,,,1,001,2024-12-04_15h41.16.992,Mental Rotation,2024.1.5,None,2024-12-04 15h41.30.011627 +0530,
CN 1,0,left,2,15,51,5,129.93880459992215,,,,,,,,,129.92333159968257,129.93880459992215,129.93880459992215,130.4542149999179,130.93746059993282,131.3391481996514,left,1,1.3884458998218179,None,,,,1,001,2024-12-04_15h41.16.992,Mental Rotation,2024.1.5,None,2024-12-04 15h41.30.011627 +0530,
UF 1,0,left,2,16,52,14,131.3685643998906,,,,,,,,,131.34023469965905,131.3685643998906,131.3685643998906,131.8698263000697,132.3530379999429,132.77146269986406,left,1,1.3975828001275659,None,,,,1,001,2024-12-04_15h41.16.992,Mental Rotation,2024.1.5,None,2024-12-04 15h41.30.011627 +0530,
UF 3,90,right,2,17,53,16,132.80137769971043,,,,,,,,,132.77256010007113,132.80137769971043,132.80137769971043,133.30182659998536,133.78498049965128,135.03497159993276,left,0,2.2307764003053308,None,,,,1,001,2024-12-04_15h41.16.992,Mental Rotation,2024.1.5,None,2024-12-04 15h41.30.011627 +0530,
twitter 2,60,right,3,0,54,10,135.05126489978284,,,,,,,,,135.03555169980973,135.05126489978284,135.05126489978284,135.566747199744,136.05000159982592,136.56780919991434,right,1,1.5066552003845572,None,,,,1,001,2024-12-04_15h41.16.992,Mental Rotation,2024.1.5,None,2024-12-04 15h41.30.011627 +0530,
fb 1,0,left,3,1,55,1,136.59444009978324,,,,,,,,,136.56881689978763,136.59444009978324,136.59444009978324,137.09888579975814,137.58205459965393,138.26745399972424,left,1,1.669678600039333,None,,,,1,001,2024-12-04_15h41.16.992,Mental Rotation,2024.1.5,None,2024-12-04 15h41.30.011627 +0530,
ig 2,80,right,3,2,56,11,138.28968809964135,,,,,,,,,138.26878139982,138.28968809964135,138.28968809964135,138.79742639977485,139.2805130998604,139.96550879999995,right,1,1.6594844004139304,None,,,,1,001,2024-12-04_15h41.16.992,Mental Rotation,2024.1.5,None,2024-12-04 15h41.30.011627 +0530,
CN 1,0,left,3,3,57,5,139.98520299978554,,,,,,,,,139.9666133997962,139.98520299978554,139.98520299978554,140.49599289987236,140.9793266998604,142.16319639980793,left,1,2.171951999887824,None,,,,1,001,2024-12-04_15h41.16.992,Mental Rotation,2024.1.5,None,2024-12-04 15h41.30.011627 +0530,
UF 3,90,right,3,4,58,16,142.18456859979779,,,,,,,,,142.16428139992058,142.18456859979779,142.18456859979779,142.6943532996811,143.17743089981377,144.47788059990853,left,0,2.282359900418669,None,,,,1,001,2024-12-04_15h41.16.992,Mental Rotation,2024.1.5,None,2024-12-04 15h41.30.011627 +0530,
twitter 1,0,left,3,5,59,3,144.4995574997738,,,,,,,,,144.47895039990544,144.4995574997738,144.4995574997738,145.00896500004455,145.49227789975703,146.06041569961235,left,1,1.546220200136304,None,,,,1,001,2024-12-04_15h41.16.992,Mental Rotation,2024.1.5,None,2024-12-04 15h41.30.011627 +0530,
ig 1,0,left,3,6,60,4,146.0789369996637,,,,,,,,,146.06167940003797,146.0789369996637,146.0789369996637,146.5911534000188,147.07408469961956,147.54258199967444,left,1,1.4529072996228933,None,,,,1,001,2024-12-04_15h41.16.992,Mental Rotation,2024.1.5,None,2024-12-04 15h41.30.011627 +0530,
CN 2,100,right,3,7,61,12,147.56108019966632,,,,,,,,,147.54364930000156,147.56108019966632,147.56108019966632,148.0729438997805,148.55637979973108,149.22459389967844,right,1,1.6521026003174484,None,,,,1,001,2024-12-04_15h41.16.992,Mental Rotation,2024.1.5,None,2024-12-04 15h41.30.011627 +0530,
adidas 1,0,left,3,8,62,0,149.24299039971083,,,,,,,,,149.22569929994643,149.24299039971083,149.24299039971083,149.75505609996617,150.238245499786,151.75539859989658,right,0,2.498854400124401,None,,,,1,001,2024-12-04_15h41.16.992,Mental Rotation,2024.1.5,None,2024-12-04 15h41.30.011627 +0530,
adidas 2,0,right,3,9,63,7,151.77441879967228,,,,,,,,,151.7564631998539,151.77441879967228,151.77441879967228,152.28638399997726,152.76943579968065,153.57045669993386,right,1,1.7886133003048599,None,,,,1,001,2024-12-04_15h41.16.992,Mental Rotation,2024.1.5,None,2024-12-04 15h41.30.011627 +0530,
fb 2,20,right,3,10,64,8,153.5928009999916,,,,,,,,,153.57203239994124,153.5928009999916,153.5928009999916,154.10154809989035,154.58490710007027,155.36960859969258,left,0,1.7739940001629293,None,,,,1,001,2024-12-04_15h41.16.992,Mental Rotation,2024.1.5,None,2024-12-04 15h41.30.011627 +0530,
twitch 1,0,left,3,11,65,6,155.39608389977366,,,,,,,,,155.37065069982782,155.39608389977366,155.39608389977366,155.9000472999178,156.38330679992214,156.90150449983776,right,0,1.4985687998123467,None,,,,1,001,2024-12-04_15h41.16.992,Mental Rotation,2024.1.5,None,2024-12-04 15h41.30.011627 +0530,
twitch 2,120,right,3,12,66,13,156.9214782998897,,,,,,,,,156.90258049964905,156.9214782998897,156.9214782998897,157.4320563999936,157.91523159993812,158.89932699967176,right,1,1.9634857000783086,None,,,,1,001,2024-12-04_15h41.16.992,Mental Rotation,2024.1.5,None,2024-12-04 15h41.30.011627 +0530,
google 2,40,right,3,13,67,9,158.91963729960844,,,,,,,,,158.9003845998086,158.91963729960844,158.91963729960844,159.4304444999434,159.91337689990178,162.81327469972894,right,1,3.887079400010407,None,,,,1,001,2024-12-04_15h41.16.992,Mental Rotation,2024.1.5,None,2024-12-04 15h41.30.011627 +0530,
UF 4,10,right,3,14,68,17,162.83598779980093,,,,,,,,,162.81494189985096,162.83598779980093,162.83598779980093,163.34379569999874,163.8271953999065,165.4443850996904,right,1,2.597575199790299,None,,,,1,001,2024-12-04_15h41.16.992,Mental Rotation,2024.1.5,None,2024-12-04 15h41.30.011627 +0530,
google 1,0,left,3,15,69,2,165.4708660999313,,,,,,,,,165.4456471996382,165.4708660999313,165.4708660999313,165.97494790004566,166.4580941000022,167.15931799961254,left,1,1.673810699954629,None,,,,1,001,2024-12-04_15h41.16.992,Mental Rotation,2024.1.5,None,2024-12-04 15h41.30.011627 +0530,
UF 1,0,left,3,16,70,14,167.1860135998577,,,,,,,,,167.16045459965244,167.1860135998577,167.1860135998577,167.69009699998423,168.1735633998178,169.7736785998568,right,0,2.572660599835217,None,,,,1,001,2024-12-04_15h41.16.992,Mental Rotation,2024.1.5,None,2024-12-04 15h41.30.011627 +0530,
UF 2,140,right,3,17,71,15,169.80051899980754,,,,,,,,,169.7746714996174,169.80051899980754,169.80051899980754,170.30462129972875,170.78819019999355,172.10522399982437,right,1,2.2930018003098667,None,,,,1,001,2024-12-04_15h41.16.992,Mental Rotation,2024.1.5,None,2024-12-04 15h41.30.011627 +0530,
UF 4,10,right,4,0,72,17,172.12621059967205,,,,,,,,,172.10625989967957,172.12621059967205,172.12621059967205,172.63637840002775,173.1194444997236,174.07029629964381,right,1,1.936489099636674,None,,,,1,001,2024-12-04_15h41.16.992,Mental Rotation,2024.1.5,None,2024-12-04 15h41.30.011627 +0530,
CN 1,0,left,4,1,73,5,174.08563670003787,,,,,,,,,174.07135179964826,174.08563670003787,174.08563670003787,174.58457099972293,175.08469090005383,175.8356023998931,left,1,1.7455603000707924,None,,,,1,001,2024-12-04_15h41.16.992,Mental Rotation,2024.1.5,None,2024-12-04 15h41.30.011627 +0530,
google 1,0,left,4,2,74,2,175.8627981999889,,,,,,,,,175.83665720000863,175.8627981999889,175.8627981999889,176.3663266999647,176.8496451000683,177.6675163996406,left,1,1.787890600040555,None,,,,1,001,2024-12-04_15h41.16.992,Mental Rotation,2024.1.5,None,2024-12-04 15h41.30.011627 +0530,
ig 1,0,left,4,3,75,4,177.69119759975,,,,,,,,,177.66869919979945,177.69119759975,177.69119759975,178.1980522996746,178.68167049996555,179.23271609982476,left,1,1.5372863998636603,None,,,,1,001,2024-12-04_15h41.16.992,Mental Rotation,2024.1.5,None,2024-12-04 15h41.30.011627 +0530,
fb 2,20,right,4,4,76,8,179.25617729965597,,,,,,,,,179.23376059997827,179.25617729965597,179.25617729965597,179.76360209984705,180.2469068998471,181.08105119969696,right,1,1.8198156002908945,None,,,,1,001,2024-12-04_15h41.16.992,Mental Rotation,2024.1.5,None,2024-12-04 15h41.30.011627 +0530,
CN 2,100,right,4,5,77,12,181.09915619995445,,,,,,,,,181.08212619973347,181.09915619995445,181.09915619995445,181.61208559991792,182.09509179973975,183.1627110997215,left,0,2.05518010025844,None,,,,1,001,2024-12-04_15h41.16.992,Mental Rotation,2024.1.5,None,2024-12-04 15h41.30.011627 +0530,
twitter 2,60,right,4,6,78,10,183.1842481000349,,,,,,,,,183.16378910001367,183.1842481000349,183.1842481000349,183.6935502998531,184.17698039999232,184.87798189977184,right,1,1.6871690000407398,None,,,,1,001,2024-12-04_15h41.16.992,Mental Rotation,2024.1.5,None,2024-12-04 15h41.30.011627 +0530,
ig 2,80,right,4,7,79,11,184.89927449962124,,,,,,,,,184.8790750997141,184.89927449962124,184.89927449962124,185.4088087999262,185.89204299962148,186.62655369983986,right,1,1.7128122998401523,None,,,,1,001,2024-12-04_15h41.16.992,Mental Rotation,2024.1.5,None,2024-12-04 15h41.30.011627 +0530,
twitter 1,0,left,4,8,80,3,186.64946240000427,,,,,,,,,186.62813919968903,186.64946240000427,186.64946240000427,187.1572116999887,187.64069420006126,189.77451539970934,left,1,3.122825200203806,None,,,,1,001,2024-12-04_15h41.16.992,Mental Rotation,2024.1.5,None,2024-12-04 15h41.30.011627 +0530,
fb 1,0,left,4,9,81,1,189.80104029970244,,,,,,,,,189.77606870001182,189.80104029970244,189.80104029970244,190.30477100005373,190.78822499979287,191.40607520006597,left,1,1.599793499801308,None,,,,1,001,2024-12-04_15h41.16.992,Mental Rotation,2024.1.5,None,2024-12-04 15h41.30.011627 +0530,
adidas 2,0,right,4,10,82,7,191.42754599964246,,,,,,,,,191.40709069976583,191.42754599964246,191.42754599964246,191.9367740000598,192.42024299968034,192.80477140005678,left,0,1.3627485996112227,None,,,,1,001,2024-12-04_15h41.16.992,Mental Rotation,2024.1.5,None,2024-12-04 15h41.30.011627 +0530,
adidas 1,0,left,4,11,83,0,192.82233199989423,,,,,,,,,192.80582810007036,192.82233199989423,192.82233199989423,193.33561989990994,193.8189713996835,194.25418379995972,left,1,1.4220793000422418,None,,,,1,001,2024-12-04_15h41.16.992,Mental Rotation,2024.1.5,None,2024-12-04 15h41.30.011627 +0530,
UF 2,140,right,4,12,84,15,194.27979219984263,,,,,,,,,194.25525519996881,194.27979219984263,194.27979219984263,194.78442509984598,195.26786839962006,195.9190768999979,right,1,1.6252485001459718,None,,,,1,001,2024-12-04_15h41.16.992,Mental Rotation,2024.1.5,None,2024-12-04 15h41.30.011627 +0530,
UF 3,90,right,4,13,85,16,195.9414149997756,,,,,,,,,195.92029809998348,195.9414149997756,195.9414149997756,196.44981619995087,196.93305059988052,198.26690499996766,left,0,2.3098408998921514,None,,,,1,001,2024-12-04_15h41.16.992,Mental Rotation,2024.1.5,None,2024-12-04 15h41.30.011627 +0530,
twitch 1,0,left,4,14,86,6,198.29299829993397,,,,,,,,,198.26796619966626,198.29299829993397,198.29299829993397,198.79772949963808,199.28102159965783,199.86557319993153,right,0,1.5619796002283692,None,,,,1,001,2024-12-04_15h41.16.992,Mental Rotation,2024.1.5,None,2024-12-04 15h41.30.011627 +0530,
UF 1,0,left,4,15,87,14,199.89403910003603,,,,,,,,,199.86691019963473,199.89403910003603,199.89403910003603,200.39660510001704,200.87979619996622,202.34727129992098,left,1,2.447470000013709,None,,,,1,001,2024-12-04_15h41.16.992,Mental Rotation,2024.1.5,None,2024-12-04 15h41.30.011627 +0530,
google 2,40,right,4,16,88,9,202.36938789999112,,,,,,,,,202.34836169984192,202.36938789999112,202.36938789999112,202.8776121996343,203.36106349993497,204.52890389971435,right,1,2.1535137998871505,None,,,,1,001,2024-12-04_15h41.16.992,Mental Rotation,2024.1.5,None,2024-12-04 15h41.30.011627 +0530,
twitch 2,120,right,4,17,89,13,204.54956009984016,,,,,,,,,204.53002549987286,204.54956009984016,204.54956009984016,205.0592282996513,205.54250779980794,206.56066529965028,right,1,2.004030799958855,None,,,,1,001,2024-12-04_15h41.16.992,Mental Rotation,2024.1.5,None,2024-12-04 15h41.30.011627 +0530,
,,,,,,,,,,,,,,,,,,,,,,,,,,206.56187749980018,206.5747626996599,209.57248929981142,1,001,2024-12-04_15h41.16.992,Mental Rotation,2024.1.5,None,2024-12-04 15h41.30.011627 +0530,
