image,orientation,corrAns,trials.thisRepN,trials.thisTrialN,trials.thisN,trials.thisIndex,thisRow.t,notes,Greeting.started,greeting1.started,key_resp.started,Greeting.stopped,key_resp.keys,key_resp.rt,key_resp.duration,trial.started,fixation.started,response.started,fixation.stopped,logos.started,logos.stopped,trial.stopped,response.keys,response.corr,response.rt,response.duration,participant,session,date,expName,psychopyVersion,frameRate,expStart,
,,,,,,,,,0.0027491003274917603,0.007887599989771843,0.007887599989771843,4.587668800260872,space,4.566584500018507,None,,,,,,,,,,,,367871,001,2024-12-04_01h20.05.552,Mental Rotation,2024.1.5,None,2024-12-04 01h20.15.424314 +0530,
CN 1,100,left,0,0,0,5,4.62856990005821,,,,,,,,,4.607368600089103,4.62856990005821,4.62856990005821,5.142882999964058,5.6119943000376225,10.621807700023055,13.071379400324076,left,1,8.43546919990331,None,367871,001,2024-12-04_01h20.05.552,Mental Rotation,2024.1.5,None,2024-12-04 01h20.15.424314 +0530,
twitch 2,120,right,0,1,1,13,13.101225200109184,,,,,,,,,13.076042999979109,13.101225200109184,13.101225200109184,13.602751300204545,14.085914800409228,,15.76960220001638,left,0,2.6568149998784065,None,367871,001,2024-12-04_01h20.05.552,Mental Rotation,2024.1.5,None,2024-12-04 01h20.15.424314 +0530,
twitter 2,60,right,0,2,2,10,15.799841300118715,,,,,,,,,15.771289100404829,15.799841300118715,15.799841300118715,16.300272200256586,16.78385590016842,,17.70141850039363,right,1,1.884670099709183,None,367871,001,2024-12-04_01h20.05.552,Mental Rotation,2024.1.5,None,2024-12-04 01h20.15.424314 +0530,
fb 2,20,right,0,3,3,8,17.727626100182533,,,,,,,,,17.702877700328827,17.727626100182533,17.727626100182533,18.23205340001732,18.715525400359184,,19.216397400014102,left,0,1.484892699867487,None,367871,001,2024-12-04_01h20.05.552,Mental Rotation,2024.1.5,None,2024-12-04 01h20.15.424314 +0530,
CN 2,100,right,0,4,4,12,19.232874700333923,,,,,,,,,19.217508300207555,19.232874700333923,19.232874700333923,19.747408600058407,20.23057100037113,,20.7006892003119,right,1,1.4509593001566827,None,367871,001,2024-12-04_01h20.05.552,Mental Rotation,2024.1.5,None,2024-12-04 01h20.15.424314 +0530,
ig 2,80,right,0,5,5,11,20.716058200225234,,,,,,,,,20.701790200080723,20.716058200225234,20.716058200225234,21.22952410019934,21.71316110016778,,22.231517600361258,left,0,1.5129118002951145,None,367871,001,2024-12-04_01h20.05.552,Mental Rotation,2024.1.5,None,2024-12-04 01h20.15.424314 +0530,
google 2,40,right,0,6,6,9,22.25990980025381,,,,,,,,,22.23248470015824,22.25990980025381,22.25990980025381,22.761789800133556,23.24519050028175,,23.67952650040388,right,1,1.4049455001950264,None,367871,001,2024-12-04_01h20.05.552,Mental Rotation,2024.1.5,None,2024-12-04 01h20.15.424314 +0530,
adidas 2,0,right,0,7,7,7,23.702538200188428,,,,,,,,,23.680791300255805,23.702538200188428,23.702538200188428,24.210714800283313,24.693846800364554,,25.428374600131065,left,0,1.7139316000975668,None,367871,001,2024-12-04_01h20.05.552,Mental Rotation,2024.1.5,None,2024-12-04 01h20.15.424314 +0530,
ig 1,80,left,0,8,8,4,25.451327600050718,,,,,,,,,25.429346000310034,25.451327600050718,25.451327600050718,25.959153200034052,26.442397500388324,,26.92706060037017,right,0,1.4616388999857008,None,367871,001,2024-12-04_01h20.05.552,Mental Rotation,2024.1.5,None,2024-12-04 01h20.15.424314 +0530,
google 1,40,left,0,9,9,2,26.951864700298756,,,,,,,,,26.927999100182205,26.951864700298756,26.951864700298756,27.45791760040447,27.94125170027837,,28.476010400336236,left,1,1.5167557001113892,None,367871,001,2024-12-04_01h20.05.552,Mental Rotation,2024.1.5,None,2024-12-04 01h20.15.424314 +0530,
fb 1,20,left,0,10,10,1,28.504073900170624,,,,,,,,,28.476973600219935,28.504073900170624,28.504073900170624,29.00664300005883,29.490046500228345,,29.925210900139064,right,0,1.417892999947071,None,367871,001,2024-12-04_01h20.05.552,Mental Rotation,2024.1.5,None,2024-12-04 01h20.15.424314 +0530,
adidas 1,0,left,0,11,11,0,29.94663970032707,,,,,,,,,29.926147500053048,29.94663970032707,29.94663970032707,30.455411500297487,30.93880890030414,,31.523472600150853,left,1,1.571365499868989,None,367871,001,2024-12-04_01h20.05.552,Mental Rotation,2024.1.5,None,2024-12-04 01h20.15.424314 +0530,
twitter 1,60,left,0,12,12,3,31.548429200425744,,,,,,,,,31.524454100057483,31.548429200425744,31.548429200425744,32.05416140006855,32.53752310015261,,32.988677400164306,left,1,1.433101000264287,None,367871,001,2024-12-04_01h20.05.552,Mental Rotation,2024.1.5,None,2024-12-04 01h20.15.424314 +0530,
twitch 1,120,left,0,13,13,6,33.01489230012521,,,,,,,,,32.98965090001002,33.01489230012521,33.01489230012521,33.51957210013643,34.00285980012268,,34.3542308001779,right,0,1.3341442001983523,None,367871,001,2024-12-04_01h20.05.552,Mental Rotation,2024.1.5,None,2024-12-04 01h20.15.424314 +0530,
twitch 2,120,right,1,0,14,13,34.376278300303966,,,,,,,,,34.35519100027159,34.376278300303966,34.376278300303966,34.88511400017887,35.36820200039074,,36.2189301000908,right,1,1.8407184998504817,None,367871,001,2024-12-04_01h20.05.552,Mental Rotation,2024.1.5,None,2024-12-04 01h20.15.424314 +0530,
CN 2,100,right,1,1,15,12,36.23487230017781,,,,,,,,,36.21958000026643,36.23487230017781,36.23487230017781,36.75019730022177,37.233465900179,,37.70152910007164,left,0,1.4502469999715686,None,367871,001,2024-12-04_01h20.05.552,Mental Rotation,2024.1.5,None,2024-12-04 01h20.15.424314 +0530,
twitch 1,120,left,1,2,16,6,37.72490360029042,,,,,,,,,37.702472100034356,37.72490360029042,37.72490360029042,38.232349100057036,38.71550300018862,,39.06700280029327,right,0,1.338479199912399,None,367871,001,2024-12-04_01h20.05.552,Mental Rotation,2024.1.5,None,2024-12-04 01h20.15.424314 +0530,
adidas 1,0,left,1,3,17,0,39.085605500265956,,,,,,,,,39.0679413001053,39.085605500265956,39.085605500265956,39.59788990020752,40.081132099963725,,40.56584689998999,left,1,1.4702425999566913,None,367871,001,2024-12-04_01h20.05.552,Mental Rotation,2024.1.5,None,2024-12-04 01h20.15.424314 +0530,
ig 2,80,right,1,4,18,11,40.58547590021044,,,,,,,,,40.5668358001858,40.58547590021044,40.58547590021044,41.096623100340366,41.57996550016105,,42.04785680025816,left,0,1.45406339969486,None,367871,001,2024-12-04_01h20.05.552,Mental Rotation,2024.1.5,None,2024-12-04 01h20.15.424314 +0530,
fb 2,20,right,1,5,19,8,42.069249800406396,,,,,,,,,42.04888380039483,42.069249800406396,42.069249800406396,42.57875380013138,43.06205300008878,,43.38072969997302,right,1,1.3093825997784734,None,367871,001,2024-12-04_01h20.05.552,Mental Rotation,2024.1.5,None,2024-12-04 01h20.15.424314 +0530,
fb 1,20,left,1,6,20,1,43.40684500010684,,,,,,,,,43.3819389003329,43.40684500010684,43.40684500010684,43.91090600006282,44.39430210040882,,44.71205500001088,left,1,1.3009329997003078,None,367871,001,2024-12-04_01h20.05.552,Mental Rotation,2024.1.5,None,2024-12-04 01h20.15.424314 +0530,
google 1,40,left,1,7,21,2,44.736046500038356,,,,,,,,,44.712968500331044,44.736046500038356,44.736046500038356,45.243261200375855,45.726636100094765,,46.06100900005549,right,0,1.3174389000050724,None,367871,001,2024-12-04_01h20.05.552,Mental Rotation,2024.1.5,None,2024-12-04 01h20.15.424314 +0530,
adidas 2,0,right,1,8,22,7,46.089128100313246,,,,,,,,,46.06247610040009,46.089128100313246,46.089128100313246,46.59219330037013,47.07536490028724,,47.46066089998931,left,0,1.3692801999859512,None,367871,001,2024-12-04_01h20.05.552,Mental Rotation,2024.1.5,None,2024-12-04 01h20.15.424314 +0530,
CN 1,100,left,1,9,23,5,47.48226570012048,,,,,,,,,47.461614300031215,47.48226570012048,47.48226570012048,47.991067700088024,48.47432090016082,,48.82611990021542,right,0,1.3411493999883533,None,367871,001,2024-12-04_01h20.05.552,Mental Rotation,2024.1.5,None,2024-12-04 01h20.15.424314 +0530,
twitter 1,60,left,1,10,24,3,48.848488400224596,,,,,,,,,48.82749740034342,48.848488400224596,48.848488400224596,49.35654260031879,49.83989110030234,,50.27448740042746,left,1,1.41316320002079,None,367871,001,2024-12-04_01h20.05.552,Mental Rotation,2024.1.5,None,2024-12-04 01h20.15.424314 +0530,
ig 1,80,left,1,11,25,4,50.29520610021427,,,,,,,,,50.275440600235015,50.29520610021427,50.29520610021427,50.80526930000633,51.28863490000367,,51.6242681001313,right,0,1.3269203999079764,None,367871,001,2024-12-04_01h20.05.552,Mental Rotation,2024.1.5,None,2024-12-04 01h20.15.424314 +0530,
twitter 2,60,right,1,12,26,10,51.645472100004554,,,,,,,,,51.625631800387055,51.645472100004554,51.645472100004554,52.15411850018427,52.63752630027011,,52.98891489999369,left,0,1.3275891998782754,None,367871,001,2024-12-04_01h20.05.552,Mental Rotation,2024.1.5,None,2024-12-04 01h20.15.424314 +0530,
google 2,40,right,1,13,27,9,53.00916980020702,,,,,,,,,52.98987250030041,53.00916980020702,53.00916980020702,53.519696600269526,54.00294390041381,,54.32093230029568,left,0,1.2943907999433577,None,367871,001,2024-12-04_01h20.05.552,Mental Rotation,2024.1.5,None,2024-12-04 01h20.15.424314 +0530,
adidas 1,0,left,2,0,28,0,54.33891430031508,,,,,,,,,54.322187500074506,54.33891430031508,54.33891430031508,54.851897899992764,55.33517670026049,,55.70406830031425,right,0,1.3628659998066723,None,367871,001,2024-12-04_01h20.05.552,Mental Rotation,2024.1.5,None,2024-12-04 01h20.15.424314 +0530,
twitter 1,60,left,2,1,29,3,55.725978000089526,,,,,,,,,55.70504180015996,55.725978000089526,55.725978000089526,56.23427730007097,56.71744180005044,,57.13566810032353,right,0,1.3956888001412153,None,367871,001,2024-12-04_01h20.05.552,Mental Rotation,2024.1.5,None,2024-12-04 01h20.15.424314 +0530,
ig 2,80,right,2,2,30,11,57.15416510030627,,,,,,,,,57.13662360003218,57.15416510030627,57.15416510030627,57.66631170036271,58.149563800077885,,58.451048500370234,right,1,1.290088600013405,None,367871,001,2024-12-04_01h20.05.552,Mental Rotation,2024.1.5,None,2024-12-04 01h20.15.424314 +0530,
fb 1,20,left,2,3,31,1,58.47625350020826,,,,,,,,,58.451995900366455,58.47625350020826,58.47625350020826,58.98178600007668,59.46533810021356,,59.79977410007268,right,0,1.3110944000072777,None,367871,001,2024-12-04_01h20.05.552,Mental Rotation,2024.1.5,None,2024-12-04 01h20.15.424314 +0530,
CN 1,100,left,2,4,32,5,59.819778700359166,,,,,,,,,59.80078770034015,59.819778700359166,59.819778700359166,60.33079700032249,60.81410180032253,,61.18228750023991,left,1,1.35769970016554,None,367871,001,2024-12-04_01h20.05.552,Mental Rotation,2024.1.5,None,2024-12-04 01h20.15.424314 +0530,
CN 2,100,right,2,5,33,12,61.19986360007897,,,,,,,,,61.183222700376064,61.19986360007897,61.19986360007897,61.71296430006623,62.19617850007489,,62.56424070009962,left,0,1.348783599678427,None,367871,001,2024-12-04_01h20.05.552,Mental Rotation,2024.1.5,None,2024-12-04 01h20.15.424314 +0530,
twitch 2,120,right,2,6,34,13,62.58615170000121,,,,,,,,,62.56519180024043,62.58615170000121,62.58615170000121,63.09514750028029,63.57852310035378,,63.89650360029191,left,0,1.2963986000977457,None,367871,001,2024-12-04_01h20.05.552,Mental Rotation,2024.1.5,None,2024-12-04 01h20.15.424314 +0530,
google 2,40,right,2,7,35,9,63.9166403003037,,,,,,,,,63.897453400306404,63.9166403003037,63.9166403003037,64.42727620014921,64.9107327000238,,65.26239630021155,left,0,1.340331600047648,None,367871,001,2024-12-04_01h20.05.552,Mental Rotation,2024.1.5,None,2024-12-04 01h20.15.424314 +0530,
fb 2,20,right,2,8,36,8,65.28452330036089,,,,,,,,,65.26339060021564,65.28452330036089,65.28452330036089,65.79275070037693,66.27632619999349,,66.62768719997257,left,0,1.326783699914813,None,367871,001,2024-12-04_01h20.05.552,Mental Rotation,2024.1.5,None,2024-12-04 01h20.15.424314 +0530,
google 1,40,left,2,9,37,2,66.65095380041748,,,,,,,,,66.62868960015476,66.65095380041748,66.65095380041748,67.1584273003973,67.6416237000376,,67.9766646004282,left,1,1.3173206998035312,None,367871,001,2024-12-04_01h20.05.552,Mental Rotation,2024.1.5,None,2024-12-04 01h20.15.424314 +0530,
twitter 2,60,right,2,10,38,10,67.99674490001053,,,,,,,,,67.97764090029523,67.99674490001053,67.99674490001053,68.50738100009039,68.99067259998992,,69.30970590002835,right,1,1.310421200003475,None,367871,001,2024-12-04_01h20.05.552,Mental Rotation,2024.1.5,None,2024-12-04 01h20.15.424314 +0530,
adidas 2,0,right,2,11,39,7,69.33043440012261,,,,,,,,,69.31068870006129,69.33043440012261,69.33043440012261,69.83939530001953,70.32305210037157,,70.74121400015429,left,0,1.4036848000250757,None,367871,001,2024-12-04_01h20.05.552,Mental Rotation,2024.1.5,None,2024-12-04 01h20.15.424314 +0530,
twitch 1,120,left,2,12,40,6,70.76511150039732,,,,,,,,,70.74222720041871,70.76511150039732,70.76511150039732,71.2717232001014,71.75510690035298,,71.95652230037376,right,0,1.1862601996399462,None,367871,001,2024-12-04_01h20.05.552,Mental Rotation,2024.1.5,None,2024-12-04 01h20.15.424314 +0530,
ig 1,80,left,2,13,41,4,71.97823770018294,,,,,,,,,71.9574564001523,71.97823770018294,71.97823770018294,72.48727820022032,72.97076700022444,,73.15565870003775,left,1,1.171839399728924,None,367871,001,2024-12-04_01h20.05.552,Mental Rotation,2024.1.5,None,2024-12-04 01h20.15.424314 +0530,
ig 2,80,right,3,0,42,11,73.17285810038447,,,,,,,,,73.15680210012943,73.17285810038447,73.17285810038447,73.68651580018923,74.1697618002072,,74.25453380029649,right,1,1.0756953000091016,None,367871,001,2024-12-04_01h20.05.552,Mental Rotation,2024.1.5,None,2024-12-04 01h20.15.424314 +0530,
google 2,40,right,3,1,43,9,74.27498890040442,,,,,,,,,74.25552700040862,74.27498890040442,74.27498890040442,74.78539770003408,75.26877870038152,,75.30368370003998,right,1,1.0143576003611088,None,367871,001,2024-12-04_01h20.05.552,Mental Rotation,2024.1.5,None,2024-12-04 01h20.15.424314 +0530,
adidas 1,0,left,3,2,44,0,75.3219004003331,,,,,,,,,75.30461810017005,75.3219004003331,75.3219004003331,75.83458510041237,76.31790020037442,,76.65254570031539,right,0,1.3200428001582623,None,367871,001,2024-12-04_01h20.05.552,Mental Rotation,2024.1.5,None,2024-12-04 01h20.15.424314 +0530,
CN 1,100,left,3,3,45,5,76.67412700038403,,,,,,,,,76.65349130006507,76.67412700038403,76.67412700038403,77.1834525000304,77.66677330015227,,77.9685615003109,left,1,1.2922504995949566,None,367871,001,2024-12-04_01h20.05.552,Mental Rotation,2024.1.5,None,2024-12-04 01h20.15.424314 +0530,
twitch 2,120,right,3,4,46,13,77.98950960021466,,,,,,,,,77.96951830014586,77.98950960021466,77.98950960021466,78.49907120037824,78.9823128003627,,79.10041140019894,left,0,1.1063885004259646,None,367871,001,2024-12-04_01h20.05.552,Mental Rotation,2024.1.5,None,2024-12-04 01h20.15.424314 +0530,
,,,,,,,79.12259750021622,,,,,,,,,79.10138000035658,79.12259750021622,79.12259750021622,79.63156550005078,80.11478470033035,,,,,,,,,,,,,,
