image,orientation,corrAns,trials.thisRepN,trials.thisTrialN,trials.thisN,trials.thisIndex,thisRow.t,notes,Greeting.started,greeting1.started,key_resp.started,Greeting.stopped,key_resp.keys,key_resp.rt,key_resp.duration,trial.started,fixation.started,response.started,fixation.stopped,logos.started,trial.stopped,response.keys,response.corr,response.rt,response.duration,thanks.started,thankyou.started,thanks.stopped,participant,session,date,expName,psychopyVersion,frameRate,expStart,
,,,,,,,,,0.0021266997791826725,0.005383200012147427,0.005383200012147427,4.553458499722183,space,4.5327677000314,None,,,,,,,,,,,,,,794370,001,2024-12-04_13h14.30.482,Mental Rotation,2024.1.5,None,2024-12-04 13h14.38.994167 +0530,
CN 1,0,left,0,0,0,5,4.588856099639088,,,,,,,,,4.5691217998974025,4.588856099639088,4.588856099639088,5.093960899859667,5.5792372999712825,7.493913299869746,right,0,2.893988700117916,None,,,,794370,001,2024-12-04_13h14.30.482,Mental Rotation,2024.1.5,None,2024-12-04 13h14.38.994167 +0530,
twitch 1,0,left,0,1,1,6,7.520334899891168,,,,,,,,,7.495493900030851,7.520334899891168,7.520334899891168,8.024678299669176,8.508110799826682,11.623862499836832,right,0,4.094855600036681,None,,,,794370,001,2024-12-04_13h14.30.482,Mental Rotation,2024.1.5,None,2024-12-04 13h14.38.994167 +0530,
google 2,40,right,0,2,2,9,11.644461499992758,,,,,,,,,11.624946699943393,11.644461499992758,11.644461499992758,12.154842399992049,12.638238499872386,14.238374100066721,right,1,2.581965600140393,None,,,,794370,001,2024-12-04_13h14.30.482,Mental Rotation,2024.1.5,None,2024-12-04 13h14.38.994167 +0530,
adidas 2,0,right,0,3,3,7,14.261575299780816,,,,,,,,,14.239397400058806,14.261575299780816,14.261575299780816,14.769236399792135,15.252636400051415,16.25368889980018,left,0,1.9867958999238908,None,,,,794370,001,2024-12-04_13h14.30.482,Mental Rotation,2024.1.5,None,2024-12-04 13h14.38.994167 +0530,
ig 1,0,left,0,4,4,4,16.279252199921757,,,,,,,,,16.25513909989968,16.279252199921757,16.279252199921757,16.784252400044352,17.267528699710965,18.36838690005243,right,0,2.075319599825889,None,,,,794370,001,2024-12-04_13h14.30.482,Mental Rotation,2024.1.5,None,2024-12-04 13h14.38.994167 +0530,
twitter 1,0,left,0,5,5,3,18.390536499675363,,,,,,,,,18.36958929989487,18.390536499675363,18.390536499675363,18.89928699983284,19.38255439978093,19.933506599627435,right,0,1.5368594001047313,None,,,,794370,001,2024-12-04_13h14.30.482,Mental Rotation,2024.1.5,None,2024-12-04 13h14.38.994167 +0530,
CN 2,100,right,0,6,6,12,19.95472739962861,,,,,,,,,19.934558399952948,19.95472739962861,19.95472739962861,20.46449469961226,20.947935899719596,21.698919099755585,right,1,1.7383590997196734,None,,,,794370,001,2024-12-04_13h14.30.482,Mental Rotation,2024.1.5,None,2024-12-04 13h14.38.994167 +0530,
fb 2,20,right,0,7,7,8,21.722504999954253,,,,,,,,,21.699906900059432,21.722504999954253,21.722504999954253,22.22997639980167,22.713116299826652,23.19757999991998,right,1,1.4627026002854109,None,,,,794370,001,2024-12-04_13h14.30.482,Mental Rotation,2024.1.5,None,2024-12-04 13h14.38.994167 +0530,
google 1,0,left,0,8,8,2,23.229381899815053,,,,,,,,,23.19861129997298,23.229381899815053,23.229381899815053,23.72854259982705,24.21169209992513,24.729690900072455,right,0,1.494796899612993,None,,,,794370,001,2024-12-04_13h14.30.482,Mental Rotation,2024.1.5,None,2024-12-04 13h14.38.994167 +0530,
twitch 2,120,right,0,9,9,13,24.750316999852657,,,,,,,,,24.730724799912423,24.750316999852657,24.750316999852657,25.260538199916482,25.74389679962769,26.228342999704182,right,1,1.4712982000783086,None,,,,794370,001,2024-12-04_13h14.30.482,Mental Rotation,2024.1.5,None,2024-12-04 13h14.38.994167 +0530,
twitter 2,60,right,0,10,10,10,26.250868799630553,,,,,,,,,26.229568199720234,26.250868799630553,26.250868799630553,26.759232299868017,27.24264539964497,27.877653199713677,right,1,1.6131722000427544,None,,,,794370,001,2024-12-04_13h14.30.482,Mental Rotation,2024.1.5,None,2024-12-04 13h14.38.994167 +0530,
adidas 1,0,left,0,11,11,0,27.898366899695247,,,,,,,,,27.879333399701864,27.898366899695247,27.898366899695247,28.40789659973234,28.891282099764794,29.808839600067586,left,1,1.9020076002925634,None,,,,794370,001,2024-12-04_13h14.30.482,Mental Rotation,2024.1.5,None,2024-12-04 13h14.38.994167 +0530,
fb 1,0,left,0,12,12,1,29.835930400062352,,,,,,,,,29.810419699642807,29.835930400062352,29.835930400062352,30.339771299622953,30.823065899778157,31.407945199869573,left,1,1.5614493996836245,None,,,,794370,001,2024-12-04_13h14.30.482,Mental Rotation,2024.1.5,None,2024-12-04 13h14.38.994167 +0530,
ig 2,80,right,0,13,13,11,31.427985799964517,,,,,,,,,31.409023699816316,31.427985799964517,31.427985799964517,31.93839649995789,32.42167449975386,33.03950920002535,left,0,1.6037758998572826,None,,,,794370,001,2024-12-04_13h14.30.482,Mental Rotation,2024.1.5,None,2024-12-04 13h14.38.994167 +0530,
twitter 2,60,right,1,0,14,10,33.06192489992827,,,,,,,,,33.04054359998554,33.06192489992827,33.06192489992827,33.57043069973588,34.05363429989666,34.60471739992499,right,1,1.5314557002857327,None,,,,794370,001,2024-12-04_13h14.30.482,Mental Rotation,2024.1.5,None,2024-12-04 13h14.38.994167 +0530,
twitch 2,120,right,1,1,15,13,34.63038899982348,,,,,,,,,34.60599619988352,34.63038899982348,34.63038899982348,35.13576139975339,35.619182999711484,36.15440639993176,left,0,1.5218504001386464,None,,,,794370,001,2024-12-04_13h14.30.482,Mental Rotation,2024.1.5,None,2024-12-04 13h14.38.994167 +0530,
twitch 1,0,left,1,2,16,6,36.17862579971552,,,,,,,,,36.15550099965185,36.17862579971552,36.17862579971552,36.684532299637794,37.16787269990891,38.186315400060266,left,1,2.004495999775827,None,,,,794370,001,2024-12-04_13h14.30.482,Mental Rotation,2024.1.5,None,2024-12-04 13h14.38.994167 +0530,
google 1,0,left,1,3,17,2,38.21036359993741,,,,,,,,,38.18754810001701,38.21036359993741,38.21036359993741,38.71624429989606,39.199371200054884,40.84960539964959,left,1,2.633240499999374,None,,,,794370,001,2024-12-04_13h14.30.482,Mental Rotation,2024.1.5,None,2024-12-04 13h14.38.994167 +0530,
twitter 1,0,left,1,4,18,3,40.8735869997181,,,,,,,,,40.85067689977586,40.8735869997181,40.8735869997181,41.380688099656254,41.863988099619746,42.74820229969919,right,0,1.8620084002614021,None,,,,794370,001,2024-12-04_13h14.30.482,Mental Rotation,2024.1.5,None,2024-12-04 13h14.38.994167 +0530,
adidas 2,0,right,1,5,19,7,42.76831109961495,,,,,,,,,42.74926789989695,42.76831109961495,42.76831109961495,43.27917249966413,43.76236899988726,44.76322939991951,left,0,1.9800612996332347,None,,,,794370,001,2024-12-04_13h14.30.482,Mental Rotation,2024.1.5,None,2024-12-04 13h14.38.994167 +0530,
CN 1,0,left,1,6,20,5,44.78592239972204,,,,,,,,,44.764297700021416,44.78592239972204,44.78592239972204,45.293908099643886,45.777457599993795,46.72804979979992,left,1,1.9381531001999974,None,,,,794370,001,2024-12-04_13h14.30.482,Mental Rotation,2024.1.5,None,2024-12-04 13h14.38.994167 +0530,
ig 2,80,right,1,7,21,11,46.74807129986584,,,,,,,,,46.729079300072044,46.74807129986584,46.74807129986584,47.259073100052774,47.74241749988869,48.25989899970591,left,0,1.5046891001984477,None,,,,794370,001,2024-12-04_13h14.30.482,Mental Rotation,2024.1.5,None,2024-12-04 13h14.38.994167 +0530,
adidas 1,0,left,1,8,22,0,48.27556569967419,,,,,,,,,48.26105389976874,48.27556569967419,48.27556569967419,48.77466359967366,49.274567199870944,50.44189139967784,left,1,2.1500266999937594,None,,,,794370,001,2024-12-04_13h14.30.482,Mental Rotation,2024.1.5,None,2024-12-04 13h14.38.994167 +0530,
ig 1,0,left,1,9,23,4,50.46364749968052,,,,,,,,,50.44303149962798,50.46364749968052,50.46364749968052,50.97269569989294,51.45595089998096,51.89162290003151,left,1,1.4257276998832822,None,,,,794370,001,2024-12-04_13h14.30.482,Mental Rotation,2024.1.5,None,2024-12-04 13h14.38.994167 +0530,
fb 1,0,left,1,10,24,1,51.91776049975306,,,,,,,,,51.892677600029856,51.91776049975306,51.91776049975306,52.42157380003482,52.904815800022334,53.30590839963406,left,1,1.3739494998008013,None,,,,794370,001,2024-12-04_13h14.30.482,Mental Rotation,2024.1.5,None,2024-12-04 13h14.38.994167 +0530,
CN 2,100,right,1,11,25,12,53.32786670001224,,,,,,,,,53.307013699784875,53.32786670001224,53.32786670001224,53.83704939996824,54.32030999986455,54.77145799994469,left,0,1.4267535000108182,None,,,,794370,001,2024-12-04_13h14.30.482,Mental Rotation,2024.1.5,None,2024-12-04 13h14.38.994167 +0530,
google 2,40,right,1,12,26,9,54.79453549999744,,,,,,,,,54.77251229993999,54.79453549999744,54.79453549999744,55.30241649970412,55.78564619971439,56.21999099990353,right,1,1.4168591001071036,None,,,,794370,001,2024-12-04_13h14.30.482,Mental Rotation,2024.1.5,None,2024-12-04 13h14.38.994167 +0530,
fb 2,20,right,1,13,27,8,56.23591949976981,,,,,,,,,56.220865099690855,56.23591949976981,56.23591949976981,56.75120829977095,57.23464239994064,57.685930700041354,right,1,1.435768200084567,None,,,,794370,001,2024-12-04_13h14.30.482,Mental Rotation,2024.1.5,None,2024-12-04 13h14.38.994167 +0530,
google 1,0,left,2,0,28,2,57.7118983999826,,,,,,,,,57.68742089997977,57.7118983999826,57.7118983999826,58.21679829992354,58.700110599864274,59.26801289990544,left,1,1.547428300138563,None,,,,794370,001,2024-12-04_13h14.30.482,Mental Rotation,2024.1.5,None,2024-12-04 13h14.38.994167 +0530,
twitch 1,0,left,2,1,29,6,59.288430399727076,,,,,,,,,59.2690268997103,59.288430399727076,59.288430399727076,59.79887339984998,60.28204720001668,61.09986809967086,left,1,1.8026875997893512,None,,,,794370,001,2024-12-04_13h14.30.482,Mental Rotation,2024.1.5,None,2024-12-04 13h14.38.994167 +0530,
fb 2,20,right,2,2,30,8,61.123209399636835,,,,,,,,,61.10098299989477,61.123209399636835,61.123209399636835,61.63050520000979,62.11403869977221,62.61515699978918,right,1,1.4794147000648081,None,,,,794370,001,2024-12-04_13h14.30.482,Mental Rotation,2024.1.5,None,2024-12-04 13h14.38.994167 +0530,
CN 1,0,left,2,3,31,5,62.636570499744266,,,,,,,,,62.6162266000174,62.636570499744266,62.636570499744266,63.14600499998778,63.629204500000924,64.0138292000629,left,1,1.3620374002493918,None,,,,794370,001,2024-12-04_13h14.30.482,Mental Rotation,2024.1.5,None,2024-12-04 13h14.38.994167 +0530,
adidas 2,0,right,2,4,32,7,64.03829749999568,,,,,,,,,64.01493109995499,64.03829749999568,64.03829749999568,64.54486329993233,65.02801649970934,65.5463248998858,left,0,1.4995689997449517,None,,,,794370,001,2024-12-04_13h14.30.482,Mental Rotation,2024.1.5,None,2024-12-04 13h14.38.994167 +0530,
google 2,40,right,2,5,33,9,65.56871649995446,,,,,,,,,65.5475816000253,65.56871649995446,65.56871649995446,66.07683099992573,66.56022399989888,67.09481499996036,left,0,1.5216411999426782,None,,,,794370,001,2024-12-04_13h14.30.482,Mental Rotation,2024.1.5,None,2024-12-04 13h14.38.994167 +0530,
fb 1,0,left,2,6,34,1,67.12153599970043,,,,,,,,,67.09588779974729,67.12153599970043,67.12153599970043,67.62554649962112,68.10885949991643,68.51014389982447,right,0,1.3783324998803437,None,,,,794370,001,2024-12-04_13h14.30.482,Mental Rotation,2024.1.5,None,2024-12-04 13h14.38.994167 +0530,
ig 1,0,left,2,7,35,4,68.53476549964398,,,,,,,,,68.51117099961266,68.53476549964398,68.53476549964398,69.04106389964,69.52436489984393,70.09244869975373,left,1,1.540542600210756,None,,,,794370,001,2024-12-04_13h14.30.482,Mental Rotation,2024.1.5,None,2024-12-04 13h14.38.994167 +0530,
twitch 2,120,right,2,8,36,13,70.114863099996,,,,,,,,,70.0936684999615,70.114863099996,70.114863099996,70.62295059999451,71.1065100999549,71.47418349981308,left,0,1.3425627001561224,None,,,,794370,001,2024-12-04_13h14.30.482,Mental Rotation,2024.1.5,None,2024-12-04 13h14.38.994167 +0530,
twitter 2,60,right,2,9,37,10,71.49605169985443,,,,,,,,,71.47567769978195,71.49605169985443,71.49605169985443,72.00537899974734,72.48877190006897,72.78995599970222,left,0,1.2896806001663208,None,,,,794370,001,2024-12-04_13h14.30.482,Mental Rotation,2024.1.5,None,2024-12-04 13h14.38.994167 +0530,
CN 2,100,right,2,10,38,12,72.80907529965043,,,,,,,,,72.79100329987705,72.80907529965043,72.80907529965043,73.3209056998603,73.80428129993379,74.13931179977953,right,1,1.3229658999480307,None,,,,794370,001,2024-12-04_13h14.30.482,Mental Rotation,2024.1.5,None,2024-12-04 13h14.38.994167 +0530,
twitter 1,0,left,2,11,39,3,74.16188360005617,,,,,,,,,74.14040399994701,74.16188360005617,74.16188360005617,74.66977059980854,75.1530973999761,75.43804099969566,left,1,1.2706544999964535,None,,,,794370,001,2024-12-04_13h14.30.482,Mental Rotation,2024.1.5,None,2024-12-04 13h14.38.994167 +0530,
adidas 1,0,left,2,12,40,0,75.45753469970077,,,,,,,,,75.43909049965441,75.45753469970077,75.45753469970077,75.96852670004591,76.45201059989631,76.90363379986957,left,1,1.4432840999215841,None,,,,794370,001,2024-12-04_13h14.30.482,Mental Rotation,2024.1.5,None,2024-12-04 13h14.38.994167 +0530,
ig 2,80,right,2,13,41,11,76.92512169992551,,,,,,,,,76.9046988999471,76.92512169992551,76.92512169992551,77.43415590003133,77.91732589993626,78.2851426997222,left,0,1.3516755998134613,None,,,,794370,001,2024-12-04_13h14.30.482,Mental Rotation,2024.1.5,None,2024-12-04 13h14.38.994167 +0530,
ig 1,0,left,3,0,42,4,78.30028439965099,,,,,,,,,78.28604099992663,78.30028439965099,78.30028439965099,78.79999189963564,79.29960040003061,79.65077269962057,right,0,1.3350412002764642,None,,,,794370,001,2024-12-04_13h14.30.482,Mental Rotation,2024.1.5,None,2024-12-04 13h14.38.994167 +0530,
adidas 1,0,left,3,1,43,0,79.66939010005444,,,,,,,,,79.65181879978627,79.66939010005444,79.66939010005444,80.18182000005618,80.66515129990876,80.94974939990789,left,1,1.2771728001534939,None,,,,794370,001,2024-12-04_13h14.30.482,Mental Rotation,2024.1.5,None,2024-12-04 13h14.38.994167 +0530,
CN 1,0,left,3,2,44,5,80.97136199986562,,,,,,,,,80.95081669976935,80.97136199986562,80.97136199986562,81.48083380004391,81.96400709962472,82.26559229986742,right,0,1.2866843999363482,None,,,,794370,001,2024-12-04_13h14.30.482,Mental Rotation,2024.1.5,None,2024-12-04 13h14.38.994167 +0530,
ig 2,80,right,3,3,45,11,82.28560419986024,,,,,,,,,82.26676480006427,82.28560419986024,82.28560419986024,,,82.4979344997555,right,1,None,None,,,,794370,001,2024-12-04_13h14.30.482,Mental Rotation,2024.1.5,None,2024-12-04 13h14.38.994167 +0530,
twitch 1,0,left,3,4,46,6,82.51582169998437,,,,,,,,,82.49874759977683,82.51582169998437,82.51582169998437,83.02961609978229,83.51253749988973,83.84850589977577,left,1,1.3302104999311268,None,,,,794370,001,2024-12-04_13h14.30.482,Mental Rotation,2024.1.5,None,2024-12-04 13h14.38.994167 +0530,
twitter 2,60,right,3,5,47,10,83.87320869974792,,,,,,,,,83.85015209997073,83.87320869974792,83.87320869974792,84.37831529974937,84.86166489962488,85.19619950000197,left,0,1.3167712995782495,None,,,,794370,001,2024-12-04_13h14.30.482,Mental Rotation,2024.1.5,None,2024-12-04 13h14.38.994167 +0530,
google 1,0,left,3,6,48,2,85.22169040003791,,,,,,,,,85.19718909962103,85.22169040003791,85.22169040003791,85.72738200007007,86.21059639984742,86.47918809996918,left,1,1.2547434996813536,None,,,,794370,001,2024-12-04_13h14.30.482,Mental Rotation,2024.1.5,None,2024-12-04 13h14.38.994167 +0530,
adidas 2,0,right,3,7,49,7,86.5003478997387,,,,,,,,,86.48021009983495,86.5003478997387,86.5003478997387,87.00954299978912,87.49289299966767,87.6275358996354,right,1,1.1137661999091506,None,,,,794370,001,2024-12-04_13h14.30.482,Mental Rotation,2024.1.5,None,2024-12-04 13h14.38.994167 +0530,
google 2,40,right,3,8,50,9,87.64950939966366,,,,,,,,,87.62863070005551,87.64950939966366,87.64950939966366,88.1584195997566,88.64188329968601,88.89333959994838,left,0,1.2370311999693513,None,,,,794370,001,2024-12-04_13h14.30.482,Mental Rotation,2024.1.5,None,2024-12-04 13h14.38.994167 +0530,
fb 1,0,left,3,9,51,1,88.92446969961748,,,,,,,,,88.89432989992201,88.92446969961748,88.92446969961748,89.42436919966713,89.90754059981555,90.11006490001455,right,0,1.1831558002159,None,,,,794370,001,2024-12-04_13h14.30.482,Mental Rotation,2024.1.5,None,2024-12-04 13h14.38.994167 +0530,
CN 2,100,right,3,10,52,12,90.12912799976766,,,,,,,,,90.11124309990555,90.12912799976766,90.12912799976766,90.63988259993494,91.12323679961264,91.39164869999513,left,0,1.2465854003094137,None,,,,794370,001,2024-12-04_13h14.30.482,Mental Rotation,2024.1.5,None,2024-12-04 13h14.38.994167 +0530,
twitter 1,0,left,3,11,53,3,91.41555639961734,,,,,,,,,91.39271279983222,91.41555639961734,91.41555639961734,91.92218100000173,92.40550839994103,92.75728739984334,left,1,1.3388551999814808,None,,,,794370,001,2024-12-04_13h14.30.482,Mental Rotation,2024.1.5,None,2024-12-04 13h14.38.994167 +0530,
twitch 2,120,right,3,12,54,13,92.77921989979222,,,,,,,,,92.75831449963152,92.77921989979222,92.77921989979222,93.28778479993343,93.77113069966435,94.08928239997476,right,1,1.3021978000178933,None,,,,794370,001,2024-12-04_13h14.30.482,Mental Rotation,2024.1.5,None,2024-12-04 13h14.38.994167 +0530,
fb 2,20,right,3,13,55,8,94.1113398000598,,,,,,,,,94.09034529980272,94.1113398000598,94.1113398000598,94.61996249994263,95.10316689964384,95.67172389989719,left,0,1.5550309997051954,None,,,,794370,001,2024-12-04_13h14.30.482,Mental Rotation,2024.1.5,None,2024-12-04 13h14.38.994167 +0530,
twitter 1,0,left,4,0,56,3,95.69462940003723,,,,,,,,,95.67277839966118,95.69462940003723,95.69462940003723,96.20192579971626,96.68532719975337,97.11984739964828,right,0,1.4209936000406742,None,,,,794370,001,2024-12-04_13h14.30.482,Mental Rotation,2024.1.5,None,2024-12-04 13h14.38.994167 +0530,
fb 2,20,right,4,1,57,8,97.14231539983302,,,,,,,,,97.1208843998611,97.14231539983302,97.14231539983302,97.65065569989383,98.1340627996251,98.90175349963829,left,0,1.7567499997094274,None,,,,794370,001,2024-12-04_13h14.30.482,Mental Rotation,2024.1.5,None,2024-12-04 13h14.38.994167 +0530,
twitter 2,60,right,4,2,58,10,98.9225504999049,,,,,,,,,98.90280020004138,98.9225504999049,98.9225504999049,99.4326044996269,99.91582980006933,100.51735519990325,right,1,1.5797206000424922,None,,,,794370,001,2024-12-04_13h14.30.482,Mental Rotation,2024.1.5,None,2024-12-04 13h14.38.994167 +0530,
google 1,0,left,4,3,59,2,100.54189449967816,,,,,,,,,100.51838999986649,100.54189449967816,100.54189449967816,101.04777959967032,101.53121729986742,102.23232219973579,left,1,1.675718699581921,None,,,,794370,001,2024-12-04_13h14.30.482,Mental Rotation,2024.1.5,None,2024-12-04 13h14.38.994167 +0530,
twitch 1,0,left,4,4,60,6,102.25767059996724,,,,,,,,,102.233342200052,102.25767059996724,102.25767059996724,102.76318469969556,103.24635270005092,103.88138599973172,left,1,1.617367499973625,None,,,,794370,001,2024-12-04_13h14.30.482,Mental Rotation,2024.1.5,None,2024-12-04 13h14.38.994167 +0530,
fb 1,0,left,4,5,61,1,103.90900840004906,,,,,,,,,103.88247179985046,103.90900840004906,103.90900840004906,104.41190929990262,104.89495379989967,105.59728029975668,left,1,1.6852478003129363,None,,,,794370,001,2024-12-04_13h14.30.482,Mental Rotation,2024.1.5,None,2024-12-04 13h14.38.994167 +0530,
adidas 2,0,right,4,6,62,7,105.62053899979219,,,,,,,,,105.59838059963658,105.62053899979219,105.62053899979219,106.12719079991803,106.61032600002363,107.07868220005184,left,0,1.4515343997627497,None,,,,794370,001,2024-12-04_13h14.30.482,Mental Rotation,2024.1.5,None,2024-12-04 13h14.38.994167 +0530,
CN 1,0,left,4,7,63,5,107.10011469991878,,,,,,,,,107.07972529996186,107.10011469991878,107.10011469991878,107.60921629983932,108.09248230000958,108.46074909996241,left,1,1.3440068000927567,None,,,,794370,001,2024-12-04_13h14.30.482,Mental Rotation,2024.1.5,None,2024-12-04 13h14.38.994167 +0530,
adidas 1,0,left,4,8,64,0,108.4800019999966,,,,,,,,,108.46180689986795,108.4800019999966,108.4800019999966,108.99121049977839,109.47482139989734,109.87606779998168,left,1,1.378322399687022,None,,,,794370,001,2024-12-04_13h14.30.482,Mental Rotation,2024.1.5,None,2024-12-04 13h14.38.994167 +0530,
twitch 2,120,right,4,9,65,13,109.89824689971283,,,,,,,,,109.87734119966626,109.89824689971283,109.89824689971283,110.40683380002156,110.89020329993218,111.24150629993528,left,0,1.32856999989599,None,,,,794370,001,2024-12-04_13h14.30.482,Mental Rotation,2024.1.5,None,2024-12-04 13h14.38.994167 +0530,
google 2,40,right,4,10,66,9,111.2620208999142,,,,,,,,,111.24258039984852,111.2620208999142,111.2620208999142,111.77253499999642,112.25573029974476,112.55743009969592,right,1,1.2875336003489792,None,,,,794370,001,2024-12-04_13h14.30.482,Mental Rotation,2024.1.5,None,2024-12-04 13h14.38.994167 +0530,
CN 2,100,right,4,11,67,12,112.57703260006383,,,,,,,,,112.55844129994512,112.57703260006383,112.57703260006383,113.0878638997674,113.57140929996967,113.88944629998878,right,1,1.3002272001467645,None,,,,794370,001,2024-12-04_13h14.30.482,Mental Rotation,2024.1.5,None,2024-12-04 13h14.38.994167 +0530,
ig 1,0,left,4,12,68,4,113.91353029990569,,,,,,,,,113.89067710004747,113.91353029990569,113.91353029990569,114.4201861997135,114.90346769988537,115.90447179973125,right,0,1.9791451999917626,None,,,,794370,001,2024-12-04_13h14.30.482,Mental Rotation,2024.1.5,None,2024-12-04 13h14.38.994167 +0530,
ig 2,80,right,4,13,69,11,115.92539459979162,,,,,,,,,115.90614819992334,115.92539459979162,115.92539459979162,116.43513710005209,116.9184236000292,117.31984999962151,right,1,1.3854152001440525,None,,,,794370,001,2024-12-04_13h14.30.482,Mental Rotation,2024.1.5,None,2024-12-04 13h14.38.994167 +0530,
,,,,,,,,,,,,,,,,,,,,,,,,,,117.32063649967313,117.33451119996607,120.33219709992409,794370,001,2024-12-04_13h14.30.482,Mental Rotation,2024.1.5,None,2024-12-04 13h14.38.994167 +0530,
